"rt","response","trialType","trial_type","trial_index","time_elapsed","internal_node_id","sub_n","date","time","leftRight","age","race","ethnicity","gender","exp_duration","success","timeout","failed_images","failed_audio","failed_video","stimulus","view_history","trialID","radius_a","radius_b","angle_a","angle_b","lrCond","question_order"
"5881","{""response"":""107""}","enter-sub-number","survey-html-form","0","5995","0.0-0.0","107","2022-3-25","13:59:2","1","18","[""White""]","No","Female","892804","","","","","","","","","","","","","",""
"","","","fullscreen","1","8428","0.0-1.0","107","2022-3-25","13:59:2","1","18","[""White""]","No","Female","892804","true","","","","","","","","","","","","",""
"","","","preload","2","8454","0.0-2.0","107","2022-3-25","13:59:2","1","18","[""White""]","No","Female","892804","true","false","[]","[]","[]","","","","","","","","",""
"22156","0","","html-button-response","3","30617","0.0-3.0","107","2022-3-25","13:59:2","1","18","[""White""]","No","Female","892804","","","","","","<div style= ""font-size:25px;"" <p> <strong> Welcome to the experiment! </strong><br> <p style=""color:#8B0000; font-size:25px;""><strong> Please do NOT exit full screen until you are done with the experiment. </strong> </p><p style=""font-size:25px;color:#8B0000;""> <strong> The experiment will be canceled and your data will be lost <br> if you try to go back or refresh the page at any point during the experiment.</strong> </p><br><p> <strong> Thanks in advance for your contribution to our research! </strong></p>","","","","","","","",""
"37529","","","instructions","4","68148","0.0-4.0","107","2022-3-25","13:59:2","1","18","[""White""]","No","Female","892804","","","","","","","[{""page_index"":0,""viewing_time"":13425},{""page_index"":1,""viewing_time"":9992},{""page_index"":2,""viewing_time"":14112}]","","","","","","",""
"null","null","presentPop","canvas-keyboard-response","5","84180","0.0-5.0","107","2022-3-25","13:59:2","1","18","[""White""]","No","Female","892804","","","","","","","","","","","","","",""
"null","null","clear_screen","canvas-keyboard-response","6","84943","0.0-6.0","107","2022-3-25","13:59:2","1","18","[""White""]","No","Female","892804","","","","","","","","","","","","","",""
"2923","","","instructions","7","87867","0.0-7.0","107","2022-3-25","13:59:2","1","18","[""White""]","No","Female","892804","","","","","","","[{""page_index"":0,""viewing_time"":2922}]","","","","","","",""
"null","null","presentPop","canvas-keyboard-response","8","103881","0.0-8.0","107","2022-3-25","13:59:2","1","18","[""White""]","No","Female","892804","","","","","","","","","","","","","",""
"null","null","clear_screen","canvas-keyboard-response","9","104642","0.0-9.0","107","2022-3-25","13:59:2","1","18","[""White""]","No","Female","892804","","","","","","","","","","","","","",""
"7657","","","instructions","10","112300","0.0-10.0","107","2022-3-25","13:59:2","1","18","[""White""]","No","Female","892804","","","","","","","[{""page_index"":0,""viewing_time"":3544},{""page_index"":1,""viewing_time"":4113}]","","","","","","",""
"6439","6","rating","canvas-keyboard-response","11","119754","0.0-11.0-0.0","107","2022-3-25","13:59:2","1","18","[""White""]","No","Female","892804","","","","","","","","130","57","85","17","17","1",""
"null","null","clear_screen","canvas-keyboard-response","12","120013","0.0-11.0-1.0","107","2022-3-25","13:59:2","1","18","[""White""]","No","Female","892804","","","","","","","","130","57","85","17","17","",""
"6481","9","rating","canvas-keyboard-response","13","126506","0.0-11.0-0.1","107","2022-3-25","13:59:2","1","18","[""White""]","No","Female","892804","","","","","","","","5","30","30","10","17","1",""
"null","null","clear_screen","canvas-keyboard-response","14","126764","0.0-11.0-1.1","107","2022-3-25","13:59:2","1","18","[""White""]","No","Female","892804","","","","","","","","5","30","30","10","17","",""
"1849","8","rating","canvas-keyboard-response","15","128625","0.0-11.0-0.2","107","2022-3-25","13:59:2","1","18","[""White""]","No","Female","892804","","","","","","","","190","140","140","17","33","0",""
"null","null","clear_screen","canvas-keyboard-response","16","128889","0.0-11.0-1.2","107","2022-3-25","13:59:2","1","18","[""White""]","No","Female","892804","","","","","","","","190","140","140","17","33","",""
"1660","1","rating","canvas-keyboard-response","17","130561","0.0-11.0-0.3","107","2022-3-25","13:59:2","1","18","[""White""]","No","Female","892804","","","","","","","","101","140","30","10","33","1",""
"null","null","clear_screen","canvas-keyboard-response","18","130821","0.0-11.0-1.3","107","2022-3-25","13:59:2","1","18","[""White""]","No","Female","892804","","","","","","","","101","140","30","10","33","",""
"3817","6","rating","canvas-keyboard-response","19","134650","0.0-11.0-0.4","107","2022-3-25","13:59:2","1","18","[""White""]","No","Female","892804","","","","","","","","180","113","140","17","40","0",""
"null","null","clear_screen","canvas-keyboard-response","20","134911","0.0-11.0-1.4","107","2022-3-25","13:59:2","1","18","[""White""]","No","Female","892804","","","","","","","","180","113","140","17","40","",""
"2581","4","rating","canvas-keyboard-response","21","137505","0.0-11.0-0.5","107","2022-3-25","13:59:2","1","18","[""White""]","No","Female","892804","","","","","","","","35","57","85","10","25","1",""
"null","null","clear_screen","canvas-keyboard-response","22","137765","0.0-11.0-1.5","107","2022-3-25","13:59:2","1","18","[""White""]","No","Female","892804","","","","","","","","35","57","85","10","25","",""
"2640","6","rating","canvas-keyboard-response","23","140417","0.0-11.0-0.6","107","2022-3-25","13:59:2","1","18","[""White""]","No","Female","892804","","","","","","","","293","30","113","40","40","0",""
"null","null","clear_screen","canvas-keyboard-response","24","140677","0.0-11.0-1.6","107","2022-3-25","13:59:2","1","18","[""White""]","No","Female","892804","","","","","","","","293","30","113","40","40","",""
"3045","8","rating","canvas-keyboard-response","25","143738","0.0-11.0-0.7","107","2022-3-25","13:59:2","1","18","[""White""]","No","Female","892804","","","","","","","","235","113","140","25","25","0",""
"null","null","clear_screen","canvas-keyboard-response","26","143998","0.0-11.0-1.7","107","2022-3-25","13:59:2","1","18","[""White""]","No","Female","892804","","","","","","","","235","113","140","25","25","",""
"2560","7","rating","canvas-keyboard-response","27","146569","0.0-11.0-0.8","107","2022-3-25","13:59:2","1","18","[""White""]","No","Female","892804","","","","","","","","31","57","113","10","17","1",""
"null","null","clear_screen","canvas-keyboard-response","28","146828","0.0-11.0-1.8","107","2022-3-25","13:59:2","1","18","[""White""]","No","Female","892804","","","","","","","","31","57","113","10","17","",""
"4217","7","rating","canvas-keyboard-response","29","151057","0.0-11.0-0.9","107","2022-3-25","13:59:2","1","18","[""White""]","No","Female","892804","","","","","","","","269","57","57","33","40","1",""
"null","null","clear_screen","canvas-keyboard-response","30","151317","0.0-11.0-1.9","107","2022-3-25","13:59:2","1","18","[""White""]","No","Female","892804","","","","","","","","269","57","57","33","40","",""
"2319","4","rating","canvas-keyboard-response","31","153649","0.0-11.0-0.10","107","2022-3-25","13:59:2","1","18","[""White""]","No","Female","892804","","","","","","","","151","85","57","17","25","1",""
"null","null","clear_screen","canvas-keyboard-response","32","153909","0.0-11.0-1.10","107","2022-3-25","13:59:2","1","18","[""White""]","No","Female","892804","","","","","","","","151","85","57","17","25","",""
"2279","3","rating","canvas-keyboard-response","33","156200","0.0-11.0-0.11","107","2022-3-25","13:59:2","1","18","[""White""]","No","Female","892804","","","","","","","","125","30","30","17","40","0",""
"null","null","clear_screen","canvas-keyboard-response","34","156460","0.0-11.0-1.11","107","2022-3-25","13:59:2","1","18","[""White""]","No","Female","892804","","","","","","","","125","30","30","17","40","",""
"2049","8","rating","canvas-keyboard-response","35","158521","0.0-11.0-0.12","107","2022-3-25","13:59:2","1","18","[""White""]","No","Female","892804","","","","","","","","289","140","113","33","40","0",""
"null","null","clear_screen","canvas-keyboard-response","36","158779","0.0-11.0-1.12","107","2022-3-25","13:59:2","1","18","[""White""]","No","Female","892804","","","","","","","","289","140","113","33","40","",""
"6763","5","rating","canvas-keyboard-response","37","165552","0.0-11.0-0.13","107","2022-3-25","13:59:2","1","18","[""White""]","No","Female","892804","","","","","","","","248","140","85","25","33","1",""
"null","null","clear_screen","canvas-keyboard-response","38","165811","0.0-11.0-1.13","107","2022-3-25","13:59:2","1","18","[""White""]","No","Female","892804","","","","","","","","248","140","85","25","33","",""
"3290","3","rating","canvas-keyboard-response","39","169114","0.0-11.0-0.14","107","2022-3-25","13:59:2","1","18","[""White""]","No","Female","892804","","","","","","","","92","140","57","10","17","0",""
"null","null","clear_screen","canvas-keyboard-response","40","169373","0.0-11.0-1.14","107","2022-3-25","13:59:2","1","18","[""White""]","No","Female","892804","","","","","","","","92","140","57","10","17","",""
"2678","6","rating","canvas-keyboard-response","41","172065","0.0-11.0-0.15","107","2022-3-25","13:59:2","1","18","[""White""]","No","Female","892804","","","","","","","","145","57","85","17","40","0",""
"null","null","clear_screen","canvas-keyboard-response","42","172324","0.0-11.0-1.15","107","2022-3-25","13:59:2","1","18","[""White""]","No","Female","892804","","","","","","","","145","57","85","17","40","",""
"5136","7","rating","canvas-keyboard-response","43","177473","0.0-11.0-0.16","107","2022-3-25","13:59:2","1","18","[""White""]","No","Female","892804","","","","","","","","26","57","113","10","10","1",""
"null","null","clear_screen","canvas-keyboard-response","44","177732","0.0-11.0-1.16","107","2022-3-25","13:59:2","1","18","[""White""]","No","Female","892804","","","","","","","","26","57","113","10","10","",""
"2185","4","rating","canvas-keyboard-response","45","179929","0.0-11.0-0.17","107","2022-3-25","13:59:2","1","18","[""White""]","No","Female","892804","","","","","","","","68","85","113","10","40","0",""
"null","null","clear_screen","canvas-keyboard-response","46","180188","0.0-11.0-1.17","107","2022-3-25","13:59:2","1","18","[""White""]","No","Female","892804","","","","","","","","68","85","113","10","40","",""
"5025","7","rating","canvas-keyboard-response","47","185225","0.0-11.0-0.18","107","2022-3-25","13:59:2","1","18","[""White""]","No","Female","892804","","","","","","","","148","85","113","17","17","1",""
"null","null","clear_screen","canvas-keyboard-response","48","185485","0.0-11.0-1.18","107","2022-3-25","13:59:2","1","18","[""White""]","No","Female","892804","","","","","","","","148","85","113","17","17","",""
"2136","6","rating","canvas-keyboard-response","49","187632","0.0-11.0-0.19","107","2022-3-25","13:59:2","1","18","[""White""]","No","Female","892804","","","","","","","","211","57","113","25","25","0",""
"null","null","clear_screen","canvas-keyboard-response","50","187892","0.0-11.0-1.19","107","2022-3-25","13:59:2","1","18","[""White""]","No","Female","892804","","","","","","","","211","57","113","25","25","",""
"2409","4","rating","canvas-keyboard-response","51","190312","0.0-11.0-0.20","107","2022-3-25","13:59:2","1","18","[""White""]","No","Female","892804","","","","","","","","39","57","57","10","33","0",""
"null","null","clear_screen","canvas-keyboard-response","52","190571","0.0-11.0-1.20","107","2022-3-25","13:59:2","1","18","[""White""]","No","Female","892804","","","","","","","","39","57","57","10","33","",""
"2018","4","rating","canvas-keyboard-response","53","192600","0.0-11.0-0.21","107","2022-3-25","13:59:2","1","18","[""White""]","No","Female","892804","","","","","","","","97","140","57","10","25","0",""
"null","null","clear_screen","canvas-keyboard-response","54","192860","0.0-11.0-1.21","107","2022-3-25","13:59:2","1","18","[""White""]","No","Female","892804","","","","","","","","97","140","57","10","25","",""
"866","4","rating","canvas-keyboard-response","55","193736","0.0-11.0-0.22","107","2022-3-25","13:59:2","1","18","[""White""]","No","Female","892804","","","","","","","","42","57","140","10","33","0",""
"null","null","clear_screen","canvas-keyboard-response","56","193996","0.0-11.0-1.22","107","2022-3-25","13:59:2","1","18","[""White""]","No","Female","892804","","","","","","","","42","57","140","10","33","",""
"3753","4","rating","canvas-keyboard-response","57","197761","0.0-11.0-0.23","107","2022-3-25","13:59:2","1","18","[""White""]","No","Female","892804","","","","","","","","242","113","57","25","40","1",""
"null","null","clear_screen","canvas-keyboard-response","58","198020","0.0-11.0-1.23","107","2022-3-25","13:59:2","1","18","[""White""]","No","Female","892804","","","","","","","","242","113","57","25","40","",""
"4552","3","rating","canvas-keyboard-response","59","202586","0.0-11.0-0.24","107","2022-3-25","13:59:2","1","18","[""White""]","No","Female","892804","","","","","","","","64","85","140","10","33","1",""
"null","null","clear_screen","canvas-keyboard-response","60","202849","0.0-11.0-1.24","107","2022-3-25","13:59:2","1","18","[""White""]","No","Female","892804","","","","","","","","64","85","140","10","33","",""
"1570","2","rating","canvas-keyboard-response","61","204432","0.0-11.0-0.25","107","2022-3-25","13:59:2","1","18","[""White""]","No","Female","892804","","","","","","","","132","57","140","17","17","0",""
"null","null","clear_screen","canvas-keyboard-response","62","204691","0.0-11.0-1.25","107","2022-3-25","13:59:2","1","18","[""White""]","No","Female","892804","","","","","","","","132","57","140","17","17","",""
"1281","2","rating","canvas-keyboard-response","63","205984","0.0-11.0-0.26","107","2022-3-25","13:59:2","1","18","[""White""]","No","Female","892804","","","","","","","","54","85","140","10","17","0",""
"null","null","clear_screen","canvas-keyboard-response","64","206244","0.0-11.0-1.26","107","2022-3-25","13:59:2","1","18","[""White""]","No","Female","892804","","","","","","","","54","85","140","10","17","",""
"1089","2","rating","canvas-keyboard-response","65","207344","0.0-11.0-0.27","107","2022-3-25","13:59:2","1","18","[""White""]","No","Female","892804","","","","","","","","40","57","85","10","33","0",""
"null","null","clear_screen","canvas-keyboard-response","66","207609","0.0-11.0-1.27","107","2022-3-25","13:59:2","1","18","[""White""]","No","Female","892804","","","","","","","","40","57","85","10","33","",""
"1477","1","rating","canvas-keyboard-response","67","209097","0.0-11.0-0.28","107","2022-3-25","13:59:2","1","18","[""White""]","No","Female","892804","","","","","","","","24","30","140","10","40","0",""
"null","null","clear_screen","canvas-keyboard-response","68","209357","0.0-11.0-1.28","107","2022-3-25","13:59:2","1","18","[""White""]","No","Female","892804","","","","","","","","24","30","140","10","40","",""
"2447","5","rating","canvas-keyboard-response","69","211816","0.0-11.0-0.29","107","2022-3-25","13:59:2","1","18","[""White""]","No","Female","892804","","","","","","","","34","57","57","10","25","1",""
"null","null","clear_screen","canvas-keyboard-response","70","212076","0.0-11.0-1.29","107","2022-3-25","13:59:2","1","18","[""White""]","No","Female","892804","","","","","","","","34","57","57","10","25","",""
"1521","3","rating","canvas-keyboard-response","71","213608","0.0-11.0-0.30","107","2022-3-25","13:59:2","1","18","[""White""]","No","Female","892804","","","","","","","","137","57","140","17","25","1",""
"null","null","clear_screen","canvas-keyboard-response","72","213867","0.0-11.0-1.30","107","2022-3-25","13:59:2","1","18","[""White""]","No","Female","892804","","","","","","","","137","57","140","17","25","",""
"2139","6","rating","canvas-keyboard-response","73","216016","0.0-11.0-0.31","107","2022-3-25","13:59:2","1","18","[""White""]","No","Female","892804","","","","","","","","285","113","140","33","40","1",""
"null","null","clear_screen","canvas-keyboard-response","74","216276","0.0-11.0-1.31","107","2022-3-25","13:59:2","1","18","[""White""]","No","Female","892804","","","","","","","","285","113","140","33","40","",""
"2690","4","rating","canvas-keyboard-response","75","218977","0.0-11.0-0.32","107","2022-3-25","13:59:2","1","18","[""White""]","No","Female","892804","","","","","","","","143","57","30","17","40","0",""
"null","null","clear_screen","canvas-keyboard-response","76","219235","0.0-11.0-1.32","107","2022-3-25","13:59:2","1","18","[""White""]","No","Female","892804","","","","","","","","143","57","30","17","40","",""
"2226","4","rating","canvas-keyboard-response","77","221472","0.0-11.0-0.33","107","2022-3-25","13:59:2","1","18","[""White""]","No","Female","892804","","","","","","","","155","85","30","17","33","1",""
"null","null","clear_screen","canvas-keyboard-response","78","221731","0.0-11.0-1.33","107","2022-3-25","13:59:2","1","18","[""White""]","No","Female","892804","","","","","","","","155","85","30","17","33","",""
"3233","7","rating","canvas-keyboard-response","79","224976","0.0-11.0-0.34","107","2022-3-25","13:59:2","1","18","[""White""]","No","Female","892804","","","","","","","","149","85","140","17","17","1",""
"null","null","clear_screen","canvas-keyboard-response","80","225235","0.0-11.0-1.34","107","2022-3-25","13:59:2","1","18","[""White""]","No","Female","892804","","","","","","","","149","85","140","17","17","",""
"1898","1","rating","canvas-keyboard-response","81","227144","0.0-11.0-0.35","107","2022-3-25","13:59:2","1","18","[""White""]","No","Female","892804","","","","","","","","246","140","30","25","33","0",""
"null","null","clear_screen","canvas-keyboard-response","82","227403","0.0-11.0-1.35","107","2022-3-25","13:59:2","1","18","[""White""]","No","Female","892804","","","","","","","","246","140","30","25","33","",""
"2801","4","rating","canvas-keyboard-response","83","230217","0.0-11.0-0.36","107","2022-3-25","13:59:2","1","18","[""White""]","No","Female","892804","","","","","","","","231","85","57","25","40","0",""
"null","null","clear_screen","canvas-keyboard-response","84","230475","0.0-11.0-1.36","107","2022-3-25","13:59:2","1","18","[""White""]","No","Female","892804","","","","","","","","231","85","57","25","40","",""
"2626","3","rating","canvas-keyboard-response","85","233112","0.0-11.0-0.37","107","2022-3-25","13:59:2","1","18","[""White""]","No","Female","892804","","","","","","","","136","57","113","17","25","0",""
"null","null","clear_screen","canvas-keyboard-response","86","233370","0.0-11.0-1.37","107","2022-3-25","13:59:2","1","18","[""White""]","No","Female","892804","","","","","","","","136","57","113","17","25","",""
"2634","4","rating","canvas-keyboard-response","87","236017","0.0-11.0-0.38","107","2022-3-25","13:59:2","1","18","[""White""]","No","Female","892804","","","","","","","","173","113","85","17","33","1",""
"null","null","clear_screen","canvas-keyboard-response","88","236275","0.0-11.0-1.38","107","2022-3-25","13:59:2","1","18","[""White""]","No","Female","892804","","","","","","","","173","113","85","17","33","",""
"5618","7","rating","canvas-keyboard-response","89","241904","0.0-11.0-0.39","107","2022-3-25","13:59:2","1","18","[""White""]","No","Female","892804","","","","","","","","109","140","113","10","40","0",""
"null","null","clear_screen","canvas-keyboard-response","90","242163","0.0-11.0-1.39","107","2022-3-25","13:59:2","1","18","[""White""]","No","Female","892804","","","","","","","","109","140","113","10","40","",""
"1522","1","rating","canvas-keyboard-response","91","243696","0.0-11.0-0.40","107","2022-3-25","13:59:2","1","18","[""White""]","No","Female","892804","","","","","","","","14","30","140","10","25","1",""
"null","null","clear_screen","canvas-keyboard-response","92","243955","0.0-11.0-1.40","107","2022-3-25","13:59:2","1","18","[""White""]","No","Female","892804","","","","","","","","14","30","140","10","25","",""
"4186","7","rating","canvas-keyboard-response","93","248152","0.0-11.0-0.41","107","2022-3-25","13:59:2","1","18","[""White""]","No","Female","892804","","","","","","","","165","113","140","17","17","1",""
"null","null","clear_screen","canvas-keyboard-response","94","248411","0.0-11.0-1.41","107","2022-3-25","13:59:2","1","18","[""White""]","No","Female","892804","","","","","","","","165","113","140","17","17","",""
"1331","3","rating","canvas-keyboard-response","95","249752","0.0-11.0-0.42","107","2022-3-25","13:59:2","1","18","[""White""]","No","Female","892804","","","","","","","","192","140","57","17","40","0",""
"null","null","clear_screen","canvas-keyboard-response","96","250011","0.0-11.0-1.42","107","2022-3-25","13:59:2","1","18","[""White""]","No","Female","892804","","","","","","","","192","140","57","17","40","",""
"1410","6","rating","canvas-keyboard-response","97","251433","0.0-11.0-0.43","107","2022-3-25","13:59:2","1","18","[""White""]","No","Female","892804","","","","","","","","93","140","85","10","17","0",""
"null","null","clear_screen","canvas-keyboard-response","98","251696","0.0-11.0-1.43","107","2022-3-25","13:59:2","1","18","[""White""]","No","Female","892804","","","","","","","","93","140","85","10","17","",""
"1378","1","rating","canvas-keyboard-response","99","253089","0.0-11.0-0.44","107","2022-3-25","13:59:2","1","18","[""White""]","No","Female","892804","","","","","","","","251","140","30","25","40","0",""
"null","null","clear_screen","canvas-keyboard-response","100","253348","0.0-11.0-1.44","107","2022-3-25","13:59:2","1","18","[""White""]","No","Female","892804","","","","","","","","251","140","30","25","40","",""
"1606","7","rating","canvas-keyboard-response","101","254969","0.0-11.0-0.45","107","2022-3-25","13:59:2","1","18","[""White""]","No","Female","892804","","","","","","","","210","57","85","25","25","0",""
"null","null","clear_screen","canvas-keyboard-response","102","255229","0.0-11.0-1.45","107","2022-3-25","13:59:2","1","18","[""White""]","No","Female","892804","","","","","","","","210","57","85","25","25","",""
"1288","1","rating","canvas-keyboard-response","103","256528","0.0-11.0-0.46","107","2022-3-25","13:59:2","1","18","[""White""]","No","Female","892804","","","","","","","","106","140","30","10","40","1",""
"null","null","clear_screen","canvas-keyboard-response","104","256787","0.0-11.0-1.46","107","2022-3-25","13:59:2","1","18","[""White""]","No","Female","892804","","","","","","","","106","140","30","10","40","",""
"2178","6","rating","canvas-keyboard-response","105","258976","0.0-11.0-0.47","107","2022-3-25","13:59:2","1","18","[""White""]","No","Female","892804","","","","","","","","117","30","85","17","25","0",""
"null","null","clear_screen","canvas-keyboard-response","106","259235","0.0-11.0-1.47","107","2022-3-25","13:59:2","1","18","[""White""]","No","Female","892804","","","","","","","","117","30","85","17","25","",""
"2761","6","rating","canvas-keyboard-response","107","262008","0.0-11.0-0.48","107","2022-3-25","13:59:2","1","18","[""White""]","No","Female","892804","","","","","","","","133","57","30","17","25","0",""
"null","null","clear_screen","canvas-keyboard-response","108","262268","0.0-11.0-1.48","107","2022-3-25","13:59:2","1","18","[""White""]","No","Female","892804","","","","","","","","133","57","30","17","25","",""
"1719","4","rating","canvas-keyboard-response","109","263999","0.0-11.0-0.49","107","2022-3-25","13:59:2","1","18","[""White""]","No","Female","892804","","","","","","","","281","113","30","33","40","1",""
"null","null","clear_screen","canvas-keyboard-response","110","264259","0.0-11.0-1.49","107","2022-3-25","13:59:2","1","18","[""White""]","No","Female","892804","","","","","","","","281","113","30","33","40","",""
"2482","8","rating","canvas-keyboard-response","111","266751","0.0-11.0-0.50","107","2022-3-25","13:59:2","1","18","[""White""]","No","Female","892804","","","","","","","","205","30","30","25","40","1",""
"null","null","clear_screen","canvas-keyboard-response","112","267011","0.0-11.0-1.50","107","2022-3-25","13:59:2","1","18","[""White""]","No","Female","892804","","","","","","","","205","30","30","25","40","",""
"3179","5","rating","canvas-keyboard-response","113","270200","0.0-11.0-0.51","107","2022-3-25","13:59:2","1","18","[""White""]","No","Female","892804","","","","","","","","13","30","113","10","25","1",""
"null","null","clear_screen","canvas-keyboard-response","114","270460","0.0-11.0-1.51","107","2022-3-25","13:59:2","1","18","[""White""]","No","Female","892804","","","","","","","","13","30","113","10","25","",""
"1920","9","rating","canvas-keyboard-response","115","272391","0.0-11.0-0.52","107","2022-3-25","13:59:2","1","18","[""White""]","No","Female","892804","","","","","","","","214","57","57","25","33","1",""
"null","null","clear_screen","canvas-keyboard-response","116","272650","0.0-11.0-1.52","107","2022-3-25","13:59:2","1","18","[""White""]","No","Female","892804","","","","","","","","214","57","57","25","33","",""
"2258","8","rating","canvas-keyboard-response","117","274921","0.0-11.0-0.53","107","2022-3-25","13:59:2","1","18","[""White""]","No","Female","892804","","","","","","","","70","113","140","10","10","0",""
"null","null","clear_screen","canvas-keyboard-response","118","275180","0.0-11.0-1.53","107","2022-3-25","13:59:2","1","18","[""White""]","No","Female","892804","","","","","","","","70","113","140","10","10","",""
"3256","4","rating","canvas-keyboard-response","119","278448","0.0-11.0-0.54","107","2022-3-25","13:59:2","1","18","[""White""]","No","Female","892804","","","","","","","","264","30","140","33","40","1",""
"null","null","clear_screen","canvas-keyboard-response","120","278707","0.0-11.0-1.54","107","2022-3-25","13:59:2","1","18","[""White""]","No","Female","892804","","","","","","","","264","30","140","33","40","",""
"1370","4","rating","canvas-keyboard-response","121","280089","0.0-11.0-0.55","107","2022-3-25","13:59:2","1","18","[""White""]","No","Female","892804","","","","","","","","167","113","57","17","25","1",""
"null","null","clear_screen","canvas-keyboard-response","122","280347","0.0-11.0-1.55","107","2022-3-25","13:59:2","1","18","[""White""]","No","Female","892804","","","","","","","","167","113","57","17","25","",""
"1474","3","rating","canvas-keyboard-response","123","281831","0.0-11.0-0.56","107","2022-3-25","13:59:2","1","18","[""White""]","No","Female","892804","","","","","","","","236","113","30","25","33","0",""
"null","null","clear_screen","canvas-keyboard-response","124","282089","0.0-11.0-1.56","107","2022-3-25","13:59:2","1","18","[""White""]","No","Female","892804","","","","","","","","236","113","30","25","33","",""
"1819","3","rating","canvas-keyboard-response","125","283920","0.0-11.0-0.57","107","2022-3-25","13:59:2","1","18","[""White""]","No","Female","892804","","","","","","","","41","57","113","10","33","1",""
"null","null","clear_screen","canvas-keyboard-response","126","284178","0.0-11.0-1.57","107","2022-3-25","13:59:2","1","18","[""White""]","No","Female","892804","","","","","","","","41","57","113","10","33","",""
"1689","8","rating","canvas-keyboard-response","127","285880","0.0-11.0-0.58","107","2022-3-25","13:59:2","1","18","[""White""]","No","Female","892804","","","","","","","","223","85","113","25","25","1",""
"null","null","clear_screen","canvas-keyboard-response","128","286139","0.0-11.0-1.58","107","2022-3-25","13:59:2","1","18","[""White""]","No","Female","892804","","","","","","","","223","85","113","25","25","",""
"2985","6","rating","canvas-keyboard-response","129","289136","0.0-11.0-0.59","107","2022-3-25","13:59:2","1","18","[""White""]","No","Female","892804","","","","","","","","292","30","85","40","40","0",""
"null","null","clear_screen","canvas-keyboard-response","130","289395","0.0-11.0-1.59","107","2022-3-25","13:59:2","1","18","[""White""]","No","Female","892804","","","","","","","","292","30","85","40","40","",""
"1705","6","rating","canvas-keyboard-response","131","291112","0.0-11.0-0.60","107","2022-3-25","13:59:2","1","18","[""White""]","No","Female","892804","","","","","","","","140","57","85","17","33","0",""
"null","null","clear_screen","canvas-keyboard-response","132","291371","0.0-11.0-1.60","107","2022-3-25","13:59:2","1","18","[""White""]","No","Female","892804","","","","","","","","140","57","85","17","33","",""
"1746","1","rating","canvas-keyboard-response","133","293129","0.0-11.0-0.61","107","2022-3-25","13:59:2","1","18","[""White""]","No","Female","892804","","","","","","","","127","30","85","17","40","1",""
"null","null","clear_screen","canvas-keyboard-response","134","293391","0.0-11.0-1.61","107","2022-3-25","13:59:2","1","18","[""White""]","No","Female","892804","","","","","","","","127","30","85","17","40","",""
"2364","8","rating","canvas-keyboard-response","135","295768","0.0-11.0-0.62","107","2022-3-25","13:59:2","1","18","[""White""]","No","Female","892804","","","","","","","","295","57","85","40","40","1",""
"null","null","clear_screen","canvas-keyboard-response","136","296029","0.0-11.0-1.62","107","2022-3-25","13:59:2","1","18","[""White""]","No","Female","892804","","","","","","","","295","57","85","40","40","",""
"2087","3","rating","canvas-keyboard-response","137","298128","0.0-11.0-0.63","107","2022-3-25","13:59:2","1","18","[""White""]","No","Female","892804","","","","","","","","15","30","30","10","33","0",""
"null","null","clear_screen","canvas-keyboard-response","138","298387","0.0-11.0-1.63","107","2022-3-25","13:59:2","1","18","[""White""]","No","Female","892804","","","","","","","","15","30","30","10","33","",""
"3936","6","rating","canvas-keyboard-response","139","302336","0.0-11.0-0.64","107","2022-3-25","13:59:2","1","18","[""White""]","No","Female","892804","","","","","","","","57","85","85","10","25","1",""
"null","null","clear_screen","canvas-keyboard-response","140","302595","0.0-11.0-1.64","107","2022-3-25","13:59:2","1","18","[""White""]","No","Female","892804","","","","","","","","57","85","85","10","25","",""
"1657","1","rating","canvas-keyboard-response","141","304264","0.0-11.0-0.65","107","2022-3-25","13:59:2","1","18","[""White""]","No","Female","892804","","","","","","","","181","140","30","17","25","1",""
"null","null","clear_screen","canvas-keyboard-response","142","304523","0.0-11.0-1.65","107","2022-3-25","13:59:2","1","18","[""White""]","No","Female","892804","","","","","","","","181","140","30","17","25","",""
"4098","5","rating","canvas-keyboard-response","143","308632","0.0-11.0-0.66","107","2022-3-25","13:59:2","1","18","[""White""]","No","Female","892804","","","","","","","","138","57","30","17","33","0",""
"null","null","clear_screen","canvas-keyboard-response","144","308891","0.0-11.0-1.66","107","2022-3-25","13:59:2","1","18","[""White""]","No","Female","892804","","","","","","","","138","57","30","17","33","",""
"5096","5","rating","canvas-keyboard-response","145","314000","0.0-11.0-0.67","107","2022-3-25","13:59:2","1","18","[""White""]","No","Female","892804","","","","","","","","206","30","57","25","40","0",""
"null","null","clear_screen","canvas-keyboard-response","146","314258","0.0-11.0-1.67","107","2022-3-25","13:59:2","1","18","[""White""]","No","Female","892804","","","","","","","","206","30","57","25","40","",""
"1914","6","rating","canvas-keyboard-response","147","316183","0.0-11.0-0.68","107","2022-3-25","13:59:2","1","18","[""White""]","No","Female","892804","","","","","","","","85","113","140","10","33","1",""
"null","null","clear_screen","canvas-keyboard-response","148","316442","0.0-11.0-1.68","107","2022-3-25","13:59:2","1","18","[""White""]","No","Female","892804","","","","","","","","85","113","140","10","33","",""
"1713","4","rating","canvas-keyboard-response","149","318167","0.0-11.0-0.69","107","2022-3-25","13:59:2","1","18","[""White""]","No","Female","892804","","","","","","","","102","140","57","10","33","1",""
"null","null","clear_screen","canvas-keyboard-response","150","318426","0.0-11.0-1.69","107","2022-3-25","13:59:2","1","18","[""White""]","No","Female","892804","","","","","","","","102","140","57","10","33","",""
"2185","3","rating","canvas-keyboard-response","151","320623","0.0-11.0-0.70","107","2022-3-25","13:59:2","1","18","[""White""]","No","Female","892804","","","","","","","","218","57","30","25","40","0",""
"null","null","clear_screen","canvas-keyboard-response","152","320882","0.0-11.0-1.70","107","2022-3-25","13:59:2","1","18","[""White""]","No","Female","892804","","","","","","","","218","57","30","25","40","",""
"1817","3","rating","canvas-keyboard-response","153","322711","0.0-11.0-0.71","107","2022-3-25","13:59:2","1","18","[""White""]","No","Female","892804","","","","","","","","247","140","57","25","33","1",""
"null","null","clear_screen","canvas-keyboard-response","154","322972","0.0-11.0-1.71","107","2022-3-25","13:59:2","1","18","[""White""]","No","Female","892804","","","","","","","","247","140","57","25","33","",""
"1320","2","rating","canvas-keyboard-response","155","324304","0.0-11.0-0.72","107","2022-3-25","13:59:2","1","18","[""White""]","No","Female","892804","","","","","","","","86","113","30","10","40","0",""
"null","null","clear_screen","canvas-keyboard-response","156","324562","0.0-11.0-1.72","107","2022-3-25","13:59:2","1","18","[""White""]","No","Female","892804","","","","","","","","86","113","30","10","40","",""
"2322","4","rating","canvas-keyboard-response","157","326895","0.0-11.0-0.73","107","2022-3-25","13:59:2","1","18","[""White""]","No","Female","892804","","","","","","","","59","85","140","10","25","1",""
"null","null","clear_screen","canvas-keyboard-response","158","327155","0.0-11.0-1.73","107","2022-3-25","13:59:2","1","18","[""White""]","No","Female","892804","","","","","","","","59","85","140","10","25","",""
"1538","4","rating","canvas-keyboard-response","159","328703","0.0-11.0-0.74","107","2022-3-25","13:59:2","1","18","[""White""]","No","Female","892804","","","","","","","","58","85","113","10","25","0",""
"null","null","clear_screen","canvas-keyboard-response","160","328963","0.0-11.0-1.74","107","2022-3-25","13:59:2","1","18","[""White""]","No","Female","892804","","","","","","","","58","85","113","10","25","",""
"2841","6","rating","canvas-keyboard-response","161","331815","0.0-11.0-0.75","107","2022-3-25","13:59:2","1","18","[""White""]","No","Female","892804","","","","","","","","233","85","113","25","40","1",""
"null","null","clear_screen","canvas-keyboard-response","162","332075","0.0-11.0-1.75","107","2022-3-25","13:59:2","1","18","[""White""]","No","Female","892804","","","","","","","","233","85","113","25","40","",""
"2993","7","rating","canvas-keyboard-response","163","335079","0.0-11.0-0.76","107","2022-3-25","13:59:2","1","18","[""White""]","No","Female","892804","","","","","","","","179","113","113","17","40","1",""
"null","null","clear_screen","canvas-keyboard-response","164","335340","0.0-11.0-1.76","107","2022-3-25","13:59:2","1","18","[""White""]","No","Female","892804","","","","","","","","179","113","113","17","40","",""
"1957","9","rating","canvas-keyboard-response","165","337311","0.0-11.0-0.77","107","2022-3-25","13:59:2","1","18","[""White""]","No","Female","892804","","","","","","","","74","113","113","10","17","0",""
"null","null","clear_screen","canvas-keyboard-response","166","337573","0.0-11.0-1.77","107","2022-3-25","13:59:2","1","18","[""White""]","No","Female","892804","","","","","","","","74","113","113","10","17","",""
"4925","4","rating","canvas-keyboard-response","167","342512","0.0-11.0-0.78","107","2022-3-25","13:59:2","1","18","[""White""]","No","Female","892804","","","","","","","","87","113","57","10","40","1",""
"null","null","clear_screen","canvas-keyboard-response","168","342772","0.0-11.0-1.78","107","2022-3-25","13:59:2","1","18","[""White""]","No","Female","892804","","","","","","","","87","113","57","10","40","",""
"2319","8","rating","canvas-keyboard-response","169","345103","0.0-11.0-0.79","107","2022-3-25","13:59:2","1","18","[""White""]","No","Female","892804","","","","","","","","6","30","57","10","17","1",""
"null","null","clear_screen","canvas-keyboard-response","170","345363","0.0-11.0-1.79","107","2022-3-25","13:59:2","1","18","[""White""]","No","Female","892804","","","","","","","","6","30","57","10","17","",""
"1537","9","rating","canvas-keyboard-response","171","346912","0.0-11.0-0.80","107","2022-3-25","13:59:2","1","18","[""White""]","No","Female","892804","","","","","","","","52","85","85","10","17","1",""
"null","null","clear_screen","canvas-keyboard-response","172","347172","0.0-11.0-1.80","107","2022-3-25","13:59:2","1","18","[""White""]","No","Female","892804","","","","","","","","52","85","85","10","17","",""
"2072","7","rating","canvas-keyboard-response","173","349256","0.0-11.0-0.81","107","2022-3-25","13:59:2","1","18","[""White""]","No","Female","892804","","","","","","","","51","85","57","10","17","0",""
"null","null","clear_screen","canvas-keyboard-response","174","349516","0.0-11.0-1.81","107","2022-3-25","13:59:2","1","18","[""White""]","No","Female","892804","","","","","","","","51","85","57","10","17","",""
"1616","6","rating","canvas-keyboard-response","175","351143","0.0-11.0-0.82","107","2022-3-25","13:59:2","1","18","[""White""]","No","Female","892804","","","","","","","","178","113","85","17","40","0",""
"null","null","clear_screen","canvas-keyboard-response","176","351403","0.0-11.0-1.82","107","2022-3-25","13:59:2","1","18","[""White""]","No","Female","892804","","","","","","","","178","113","85","17","40","",""
"1801","8","rating","canvas-keyboard-response","177","353215","0.0-11.0-0.83","107","2022-3-25","13:59:2","1","18","[""White""]","No","Female","892804","","","","","","","","226","85","57","25","33","1",""
"null","null","clear_screen","canvas-keyboard-response","178","353475","0.0-11.0-1.83","107","2022-3-25","13:59:2","1","18","[""White""]","No","Female","892804","","","","","","","","226","85","57","25","33","",""
"1553","4","rating","canvas-keyboard-response","179","355040","0.0-11.0-0.84","107","2022-3-25","13:59:2","1","18","[""White""]","No","Female","892804","","","","","","","","287","140","57","33","40","0",""
"null","null","clear_screen","canvas-keyboard-response","180","355299","0.0-11.0-1.84","107","2022-3-25","13:59:2","1","18","[""White""]","No","Female","892804","","","","","","","","287","140","57","33","40","",""
"1001","4","rating","canvas-keyboard-response","181","356311","0.0-11.0-0.85","107","2022-3-25","13:59:2","1","18","[""White""]","No","Female","892804","","","","","","","","216","57","113","25","33","0",""
"null","null","clear_screen","canvas-keyboard-response","182","356570","0.0-11.0-1.85","107","2022-3-25","13:59:2","1","18","[""White""]","No","Female","892804","","","","","","","","216","57","113","25","33","",""
"1844","8","rating","canvas-keyboard-response","183","358431","0.0-11.0-0.86","107","2022-3-25","13:59:2","1","18","[""White""]","No","Female","892804","","","","","","","","48","85","113","10","10","0",""
"null","null","clear_screen","canvas-keyboard-response","184","358691","0.0-11.0-1.86","107","2022-3-25","13:59:2","1","18","[""White""]","No","Female","892804","","","","","","","","48","85","113","10","10","",""
"1464","9","rating","canvas-keyboard-response","185","360168","0.0-11.0-0.87","107","2022-3-25","13:59:2","1","18","[""White""]","No","Female","892804","","","","","","","","284","113","113","33","40","0",""
"null","null","clear_screen","canvas-keyboard-response","186","360426","0.0-11.0-1.87","107","2022-3-25","13:59:2","1","18","[""White""]","No","Female","892804","","","","","","","","284","113","113","33","40","",""
"1321","8","rating","canvas-keyboard-response","187","361759","0.0-11.0-0.88","107","2022-3-25","13:59:2","1","18","[""White""]","No","Female","892804","","","","","","","","240","113","140","25","33","0",""
"null","null","clear_screen","canvas-keyboard-response","188","362018","0.0-11.0-1.88","107","2022-3-25","13:59:2","1","18","[""White""]","No","Female","892804","","","","","","","","240","113","140","25","33","",""
"2265","8","rating","canvas-keyboard-response","189","364295","0.0-11.0-0.89","107","2022-3-25","13:59:2","1","18","[""White""]","No","Female","892804","","","","","","","","196","30","57","25","25","1",""
"null","null","clear_screen","canvas-keyboard-response","190","364555","0.0-11.0-1.89","107","2022-3-25","13:59:2","1","18","[""White""]","No","Female","892804","","","","","","","","196","30","57","25","25","",""
"2929","7","rating","canvas-keyboard-response","191","367496","0.0-11.0-0.90","107","2022-3-25","13:59:2","1","18","[""White""]","No","Female","892804","","","","","","","","299","85","140","40","40","1",""
"null","null","clear_screen","canvas-keyboard-response","192","367755","0.0-11.0-1.90","107","2022-3-25","13:59:2","1","18","[""White""]","No","Female","892804","","","","","","","","299","85","140","40","40","",""
"2097","5","rating","canvas-keyboard-response","193","369863","0.0-11.0-0.91","107","2022-3-25","13:59:2","1","18","[""White""]","No","Female","892804","","","","","","","","118","30","113","17","25","1",""
"null","null","clear_screen","canvas-keyboard-response","194","370122","0.0-11.0-1.91","107","2022-3-25","13:59:2","1","18","[""White""]","No","Female","892804","","","","","","","","118","30","113","17","25","",""
"2772","7","rating","canvas-keyboard-response","195","372904","0.0-11.0-0.92","107","2022-3-25","13:59:2","1","18","[""White""]","No","Female","892804","","","","","","","","62","85","85","10","33","0",""
"null","null","clear_screen","canvas-keyboard-response","196","373163","0.0-11.0-1.92","107","2022-3-25","13:59:2","1","18","[""White""]","No","Female","892804","","","","","","","","62","85","85","10","33","",""
"1593","4","rating","canvas-keyboard-response","197","374767","0.0-11.0-0.93","107","2022-3-25","13:59:2","1","18","[""White""]","No","Female","892804","","","","","","","","252","140","57","25","40","1",""
"null","null","clear_screen","canvas-keyboard-response","198","375027","0.0-11.0-1.93","107","2022-3-25","13:59:2","1","18","[""White""]","No","Female","892804","","","","","","","","252","140","57","25","40","",""
"1423","9","rating","canvas-keyboard-response","199","376463","0.0-11.0-0.94","107","2022-3-25","13:59:2","1","18","[""White""]","No","Female","892804","","","","","","","","290","140","140","33","40","0",""
"null","null","clear_screen","canvas-keyboard-response","200","376722","0.0-11.0-1.94","107","2022-3-25","13:59:2","1","18","[""White""]","No","Female","892804","","","","","","","","290","140","140","33","40","",""
"1762","6","rating","canvas-keyboard-response","201","378495","0.0-11.0-0.95","107","2022-3-25","13:59:2","1","18","[""White""]","No","Female","892804","","","","","","","","45","57","85","10","40","1",""
"null","null","clear_screen","canvas-keyboard-response","202","378754","0.0-11.0-1.95","107","2022-3-25","13:59:2","1","18","[""White""]","No","Female","892804","","","","","","","","45","57","85","10","40","",""
"1978","7","rating","canvas-keyboard-response","203","380744","0.0-11.0-0.96","107","2022-3-25","13:59:2","1","18","[""White""]","No","Female","892804","","","","","","","","2","30","85","10","10","1",""
"null","null","clear_screen","canvas-keyboard-response","204","381002","0.0-11.0-1.96","107","2022-3-25","13:59:2","1","18","[""White""]","No","Female","892804","","","","","","","","2","30","85","10","10","",""
"2921","6","rating","canvas-keyboard-response","205","383934","0.0-11.0-0.97","107","2022-3-25","13:59:2","1","18","[""White""]","No","Female","892804","","","","","","","","154","85","140","17","25","0",""
"null","null","clear_screen","canvas-keyboard-response","206","384193","0.0-11.0-1.97","107","2022-3-25","13:59:2","1","18","[""White""]","No","Female","892804","","","","","","","","154","85","140","17","25","",""
"6747","6","rating","canvas-keyboard-response","207","390950","0.0-11.0-0.98","107","2022-3-25","13:59:2","1","18","[""White""]","No","Female","892804","","","","","","","","288","140","85","33","40","1",""
"null","null","clear_screen","canvas-keyboard-response","208","391209","0.0-11.0-1.98","107","2022-3-25","13:59:2","1","18","[""White""]","No","Female","892804","","","","","","","","288","140","85","33","40","",""
"2251","8","rating","canvas-keyboard-response","209","393470","0.0-11.0-0.99","107","2022-3-25","13:59:2","1","18","[""White""]","No","Female","892804","","","","","","","","95","140","140","10","17","0",""
"null","null","clear_screen","canvas-keyboard-response","210","393730","0.0-11.0-1.99","107","2022-3-25","13:59:2","1","18","[""White""]","No","Female","892804","","","","","","","","95","140","140","10","17","",""
"1426","8","rating","canvas-keyboard-response","211","395167","0.0-11.0-0.100","107","2022-3-25","13:59:2","1","18","[""White""]","No","Female","892804","","","","","","","","213","57","30","25","33","0",""
"null","null","clear_screen","canvas-keyboard-response","212","395427","0.0-11.0-1.100","107","2022-3-25","13:59:2","1","18","[""White""]","No","Female","892804","","","","","","","","213","57","30","25","33","",""
"1258","6","rating","canvas-keyboard-response","213","396695","0.0-11.0-0.101","107","2022-3-25","13:59:2","1","18","[""White""]","No","Female","892804","","","","","","","","122","30","85","17","33","1",""
"null","null","clear_screen","canvas-keyboard-response","214","396954","0.0-11.0-1.101","107","2022-3-25","13:59:2","1","18","[""White""]","No","Female","892804","","","","","","","","122","30","85","17","33","",""
"1778","8","rating","canvas-keyboard-response","215","398742","0.0-11.0-0.102","107","2022-3-25","13:59:2","1","18","[""White""]","No","Female","892804","","","","","","","","175","113","140","17","33","0",""
"null","null","clear_screen","canvas-keyboard-response","216","399002","0.0-11.0-1.102","107","2022-3-25","13:59:2","1","18","[""White""]","No","Female","892804","","","","","","","","175","113","140","17","33","",""
"2418","6","rating","canvas-keyboard-response","217","401432","0.0-11.0-0.103","107","2022-3-25","13:59:2","1","18","[""White""]","No","Female","892804","","","","","","","","253","140","85","25","40","0",""
"null","null","clear_screen","canvas-keyboard-response","218","401693","0.0-11.0-1.103","107","2022-3-25","13:59:2","1","18","[""White""]","No","Female","892804","","","","","","","","253","140","85","25","40","",""
"1882","4","rating","canvas-keyboard-response","219","403591","0.0-11.0-0.104","107","2022-3-25","13:59:2","1","18","[""White""]","No","Female","892804","","","","","","","","275","85","30","33","40","1",""
"null","null","clear_screen","canvas-keyboard-response","220","403852","0.0-11.0-1.104","107","2022-3-25","13:59:2","1","18","[""White""]","No","Female","892804","","","","","","","","275","85","30","33","40","",""
"1527","8","rating","canvas-keyboard-response","221","405392","0.0-11.0-0.105","107","2022-3-25","13:59:2","1","18","[""White""]","No","Female","892804","","","","","","","","276","85","57","33","40","0",""
"null","null","clear_screen","canvas-keyboard-response","222","405651","0.0-11.0-1.105","107","2022-3-25","13:59:2","1","18","[""White""]","No","Female","892804","","","","","","","","276","85","57","33","40","",""
"2176","9","rating","canvas-keyboard-response","223","407840","0.0-11.0-0.106","107","2022-3-25","13:59:2","1","18","[""White""]","No","Female","892804","","","","","","","","53","85","113","10","17","1",""
"null","null","clear_screen","canvas-keyboard-response","224","408099","0.0-11.0-1.106","107","2022-3-25","13:59:2","1","18","[""White""]","No","Female","892804","","","","","","","","53","85","113","10","17","",""
"1601","6","rating","canvas-keyboard-response","225","409711","0.0-11.0-0.107","107","2022-3-25","13:59:2","1","18","[""White""]","No","Female","892804","","","","","","","","163","85","113","17","40","0",""
"null","null","clear_screen","canvas-keyboard-response","226","409974","0.0-11.0-1.107","107","2022-3-25","13:59:2","1","18","[""White""]","No","Female","892804","","","","","","","","163","85","113","17","40","",""
"1238","4","rating","canvas-keyboard-response","227","411223","0.0-11.0-0.108","107","2022-3-25","13:59:2","1","18","[""White""]","No","Female","892804","","","","","","","","150","85","30","17","25","1",""
"null","null","clear_screen","canvas-keyboard-response","228","411484","0.0-11.0-1.108","107","2022-3-25","13:59:2","1","18","[""White""]","No","Female","892804","","","","","","","","150","85","30","17","25","",""
"2824","2","rating","canvas-keyboard-response","229","414318","0.0-11.0-0.109","107","2022-3-25","13:59:2","1","18","[""White""]","No","Female","892804","","","","","","","","20","30","30","10","40","0",""
"null","null","clear_screen","canvas-keyboard-response","230","414578","0.0-11.0-1.109","107","2022-3-25","13:59:2","1","18","[""White""]","No","Female","892804","","","","","","","","20","30","30","10","40","",""
"2353","6","rating","canvas-keyboard-response","231","416943","0.0-11.0-0.110","107","2022-3-25","13:59:2","1","18","[""White""]","No","Female","892804","","","","","","","","274","85","140","33","33","1",""
"null","null","clear_screen","canvas-keyboard-response","232","417202","0.0-11.0-1.110","107","2022-3-25","13:59:2","1","18","[""White""]","No","Female","892804","","","","","","","","274","85","140","33","33","",""
"1619","3","rating","canvas-keyboard-response","233","418831","0.0-11.0-0.111","107","2022-3-25","13:59:2","1","18","[""White""]","No","Female","892804","","","","","","","","268","57","30","33","40","1",""
"null","null","clear_screen","canvas-keyboard-response","234","419091","0.0-11.0-1.111","107","2022-3-25","13:59:2","1","18","[""White""]","No","Female","892804","","","","","","","","268","57","30","33","40","",""
"2369","6","rating","canvas-keyboard-response","235","421471","0.0-11.0-0.112","107","2022-3-25","13:59:2","1","18","[""White""]","No","Female","892804","","","","","","","","99","140","113","10","25","1",""
"null","null","clear_screen","canvas-keyboard-response","236","421730","0.0-11.0-1.112","107","2022-3-25","13:59:2","1","18","[""White""]","No","Female","892804","","","","","","","","99","140","113","10","25","",""
"1234","6","rating","canvas-keyboard-response","237","422976","0.0-11.0-0.113","107","2022-3-25","13:59:2","1","18","[""White""]","No","Female","892804","","","","","","","","63","85","113","10","33","0",""
"null","null","clear_screen","canvas-keyboard-response","238","423234","0.0-11.0-1.113","107","2022-3-25","13:59:2","1","18","[""White""]","No","Female","892804","","","","","","","","63","85","113","10","33","",""
"1918","6","rating","canvas-keyboard-response","239","425166","0.0-11.0-0.114","107","2022-3-25","13:59:2","1","18","[""White""]","No","Female","892804","","","","","","","","131","57","113","17","17","0",""
"null","null","clear_screen","canvas-keyboard-response","240","425426","0.0-11.0-1.114","107","2022-3-25","13:59:2","1","18","[""White""]","No","Female","892804","","","","","","","","131","57","113","17","17","",""
"1619","4","rating","canvas-keyboard-response","241","427055","0.0-11.0-0.115","107","2022-3-25","13:59:2","1","18","[""White""]","No","Female","892804","","","","","","","","219","57","57","25","40","0",""
"null","null","clear_screen","canvas-keyboard-response","242","427313","0.0-11.0-1.115","107","2022-3-25","13:59:2","1","18","[""White""]","No","Female","892804","","","","","","","","219","57","57","25","40","",""
"2178","5","rating","canvas-keyboard-response","243","429502","0.0-11.0-0.116","107","2022-3-25","13:59:2","1","18","[""White""]","No","Female","892804","","","","","","","","33","57","30","10","25","0",""
"null","null","clear_screen","canvas-keyboard-response","244","429761","0.0-11.0-1.116","107","2022-3-25","13:59:2","1","18","[""White""]","No","Female","892804","","","","","","","","33","57","30","10","25","",""
"1594","5","rating","canvas-keyboard-response","245","431367","0.0-11.0-0.117","107","2022-3-25","13:59:2","1","18","[""White""]","No","Female","892804","","","","","","","","201","30","57","25","33","1",""
"null","null","clear_screen","canvas-keyboard-response","246","431625","0.0-11.0-1.117","107","2022-3-25","13:59:2","1","18","[""White""]","No","Female","892804","","","","","","","","201","30","57","25","33","",""
"2746","3","rating","canvas-keyboard-response","247","434383","0.0-11.0-0.118","107","2022-3-25","13:59:2","1","18","[""White""]","No","Female","892804","","","","","","","","88","113","85","10","40","1",""
"null","null","clear_screen","canvas-keyboard-response","248","434642","0.0-11.0-1.118","107","2022-3-25","13:59:2","1","18","[""White""]","No","Female","892804","","","","","","","","88","113","85","10","40","",""
"1482","3","rating","canvas-keyboard-response","249","436134","0.0-11.0-0.119","107","2022-3-25","13:59:2","1","18","[""White""]","No","Female","892804","","","","","","","","286","140","30","33","40","1",""
"null","null","clear_screen","canvas-keyboard-response","250","436394","0.0-11.0-1.119","107","2022-3-25","13:59:2","1","18","[""White""]","No","Female","892804","","","","","","","","286","140","30","33","40","",""
"4977","6","rating","canvas-keyboard-response","251","441383","0.0-11.0-0.120","107","2022-3-25","13:59:2","1","18","[""White""]","No","Female","892804","","","","","","","","266","57","113","33","33","1",""
"null","null","clear_screen","canvas-keyboard-response","252","441642","0.0-11.0-1.120","107","2022-3-25","13:59:2","1","18","[""White""]","No","Female","892804","","","","","","","","266","57","113","33","33","",""
"2111","4","rating","canvas-keyboard-response","253","443767","0.0-11.0-0.121","107","2022-3-25","13:59:2","1","18","[""White""]","No","Female","892804","","","","","","","","60","85","30","10","33","1",""
"null","null","clear_screen","canvas-keyboard-response","254","444026","0.0-11.0-1.121","107","2022-3-25","13:59:2","1","18","[""White""]","No","Female","892804","","","","","","","","60","85","30","10","33","",""
"1698","9","rating","canvas-keyboard-response","255","445735","0.0-11.0-0.122","107","2022-3-25","13:59:2","1","18","[""White""]","No","Female","892804","","","","","","","","291","30","57","40","40","0",""
"null","null","clear_screen","canvas-keyboard-response","256","445994","0.0-11.0-1.122","107","2022-3-25","13:59:2","1","18","[""White""]","No","Female","892804","","","","","","","","291","30","57","40","40","",""
"2802","3","rating","canvas-keyboard-response","257","448807","0.0-11.0-0.123","107","2022-3-25","13:59:2","1","18","[""White""]","No","Female","892804","","","","","","","","43","57","30","10","40","1",""
"null","null","clear_screen","canvas-keyboard-response","258","449066","0.0-11.0-1.123","107","2022-3-25","13:59:2","1","18","[""White""]","No","Female","892804","","","","","","","","43","57","30","10","40","",""
"4099","4","rating","canvas-keyboard-response","259","453174","0.0-11.0-0.124","107","2022-3-25","13:59:2","1","18","[""White""]","No","Female","892804","","","","","","","","237","113","57","25","33","1",""
"null","null","clear_screen","canvas-keyboard-response","260","453434","0.0-11.0-1.124","107","2022-3-25","13:59:2","1","18","[""White""]","No","Female","892804","","","","","","","","237","113","57","25","33","",""
"1882","3","rating","canvas-keyboard-response","261","455327","0.0-11.0-0.125","107","2022-3-25","13:59:2","1","18","[""White""]","No","Female","892804","","","","","","","","128","30","113","17","40","0",""
"null","null","clear_screen","canvas-keyboard-response","262","455586","0.0-11.0-1.125","107","2022-3-25","13:59:2","1","18","[""White""]","No","Female","892804","","","","","","","","128","30","113","17","40","",""
"1634","1","rating","canvas-keyboard-response","263","457230","0.0-11.0-0.126","107","2022-3-25","13:59:2","1","18","[""White""]","No","Female","892804","","","","","","","","171","113","30","17","33","0",""
"null","null","clear_screen","canvas-keyboard-response","264","457489","0.0-11.0-1.126","107","2022-3-25","13:59:2","1","18","[""White""]","No","Female","892804","","","","","","","","171","113","30","17","33","",""
"1537","9","rating","canvas-keyboard-response","265","459038","0.0-11.0-0.127","107","2022-3-25","13:59:2","1","18","[""White""]","No","Female","892804","","","","","","","","250","140","140","25","33","1",""
"null","null","clear_screen","canvas-keyboard-response","266","459298","0.0-11.0-1.127","107","2022-3-25","13:59:2","1","18","[""White""]","No","Female","892804","","","","","","","","250","140","140","25","33","",""
"3057","8","rating","canvas-keyboard-response","267","462367","0.0-11.0-0.128","107","2022-3-25","13:59:2","1","18","[""White""]","No","Female","892804","","","","","","","","243","113","85","25","40","1",""
"null","null","clear_screen","canvas-keyboard-response","268","462626","0.0-11.0-1.128","107","2022-3-25","13:59:2","1","18","[""White""]","No","Female","892804","","","","","","","","243","113","85","25","40","",""
"1830","4","rating","canvas-keyboard-response","269","464470","0.0-11.0-0.129","107","2022-3-25","13:59:2","1","18","[""White""]","No","Female","892804","","","","","","","","198","30","113","25","25","1",""
"null","null","clear_screen","canvas-keyboard-response","270","464729","0.0-11.0-1.129","107","2022-3-25","13:59:2","1","18","[""White""]","No","Female","892804","","","","","","","","198","30","113","25","25","",""
"3290","7","rating","canvas-keyboard-response","271","468031","0.0-11.0-0.130","107","2022-3-25","13:59:2","1","18","[""White""]","No","Female","892804","","","","","","","","256","30","57","33","33","1",""
"null","null","clear_screen","canvas-keyboard-response","272","468289","0.0-11.0-1.130","107","2022-3-25","13:59:2","1","18","[""White""]","No","Female","892804","","","","","","","","256","30","57","33","33","",""
"2179","7","rating","canvas-keyboard-response","273","470479","0.0-11.0-0.131","107","2022-3-25","13:59:2","1","18","[""White""]","No","Female","892804","","","","","","","","80","113","140","10","25","1",""
"null","null","clear_screen","canvas-keyboard-response","274","470743","0.0-11.0-1.131","107","2022-3-25","13:59:2","1","18","[""White""]","No","Female","892804","","","","","","","","80","113","140","10","25","",""
"2090","3","rating","canvas-keyboard-response","275","472846","0.0-11.0-0.132","107","2022-3-25","13:59:2","1","18","[""White""]","No","Female","892804","","","","","","","","176","113","30","17","40","1",""
"null","null","clear_screen","canvas-keyboard-response","276","473107","0.0-11.0-1.132","107","2022-3-25","13:59:2","1","18","[""White""]","No","Female","892804","","","","","","","","176","113","30","17","40","",""
"3671","3","rating","canvas-keyboard-response","277","476791","0.0-11.0-0.133","107","2022-3-25","13:59:2","1","18","[""White""]","No","Female","892804","","","","","","","","294","30","140","40","40","0",""
"null","null","clear_screen","canvas-keyboard-response","278","477050","0.0-11.0-1.133","107","2022-3-25","13:59:2","1","18","[""White""]","No","Female","892804","","","","","","","","294","30","140","40","40","",""
"1010","3","rating","canvas-keyboard-response","279","478071","0.0-11.0-0.134","107","2022-3-25","13:59:2","1","18","[""White""]","No","Female","892804","","","","","","","","98","140","85","10","25","1",""
"null","null","clear_screen","canvas-keyboard-response","280","478330","0.0-11.0-1.134","107","2022-3-25","13:59:2","1","18","[""White""]","No","Female","892804","","","","","","","","98","140","85","10","25","",""
"1850","2","rating","canvas-keyboard-response","281","480191","0.0-11.0-0.135","107","2022-3-25","13:59:2","1","18","[""White""]","No","Female","892804","","","","","","","","114","30","140","17","17","0",""
"null","null","clear_screen","canvas-keyboard-response","282","480450","0.0-11.0-1.135","107","2022-3-25","13:59:2","1","18","[""White""]","No","Female","892804","","","","","","","","114","30","140","17","17","",""
"1409","9","rating","canvas-keyboard-response","283","481871","0.0-11.0-0.136","107","2022-3-25","13:59:2","1","18","[""White""]","No","Female","892804","","","","","","","","300","113","140","40","40","0",""
"null","null","clear_screen","canvas-keyboard-response","284","482132","0.0-11.0-1.136","107","2022-3-25","13:59:2","1","18","[""White""]","No","Female","892804","","","","","","","","300","113","140","40","40","",""
"2086","4","rating","canvas-keyboard-response","285","484230","0.0-11.0-0.137","107","2022-3-25","13:59:2","1","18","[""White""]","No","Female","892804","","","","","","","","107","140","57","10","40","1",""
"null","null","clear_screen","canvas-keyboard-response","286","484490","0.0-11.0-1.137","107","2022-3-25","13:59:2","1","18","[""White""]","No","Female","892804","","","","","","","","107","140","57","10","40","",""
"3529","6","rating","canvas-keyboard-response","287","488031","0.0-11.0-0.138","107","2022-3-25","13:59:2","1","18","[""White""]","No","Female","892804","","","","","","","","112","30","85","17","17","0",""
"null","null","clear_screen","canvas-keyboard-response","288","488291","0.0-11.0-1.138","107","2022-3-25","13:59:2","1","18","[""White""]","No","Female","892804","","","","","","","","112","30","85","17","17","",""
"1969","6","rating","canvas-keyboard-response","289","490271","0.0-11.0-0.139","107","2022-3-25","13:59:2","1","18","[""White""]","No","Female","892804","","","","","","","","139","57","57","17","33","0",""
"null","null","clear_screen","canvas-keyboard-response","290","490529","0.0-11.0-1.139","107","2022-3-25","13:59:2","1","18","[""White""]","No","Female","892804","","","","","","","","139","57","57","17","33","",""
"1618","4","rating","canvas-keyboard-response","291","492158","0.0-11.0-0.140","107","2022-3-25","13:59:2","1","18","[""White""]","No","Female","892804","","","","","","","","207","30","85","25","40","0",""
"null","null","clear_screen","canvas-keyboard-response","292","492418","0.0-11.0-1.140","107","2022-3-25","13:59:2","1","18","[""White""]","No","Female","892804","","","","","","","","207","30","85","25","40","",""
"5066","3","rating","canvas-keyboard-response","293","497494","0.0-11.0-0.141","107","2022-3-25","13:59:2","1","18","[""White""]","No","Female","892804","","","","","","","","76","113","30","10","25","0",""
"null","null","clear_screen","canvas-keyboard-response","294","497754","0.0-11.0-1.141","107","2022-3-25","13:59:2","1","18","[""White""]","No","Female","892804","","","","","","","","76","113","30","10","25","",""
"2511","6","rating","canvas-keyboard-response","295","500279","0.0-11.0-0.142","107","2022-3-25","13:59:2","1","18","[""White""]","No","Female","892804","","","","","","","","49","85","140","10","10","0",""
"null","null","clear_screen","canvas-keyboard-response","296","500538","0.0-11.0-1.142","107","2022-3-25","13:59:2","1","18","[""White""]","No","Female","892804","","","","","","","","49","85","140","10","10","",""
"5194","7","rating","canvas-keyboard-response","297","505742","0.0-11.0-0.143","107","2022-3-25","13:59:2","1","18","[""White""]","No","Female","892804","","","","","","","","174","113","113","17","33","1",""
"null","null","clear_screen","canvas-keyboard-response","298","506001","0.0-11.0-1.143","107","2022-3-25","13:59:2","1","18","[""White""]","No","Female","892804","","","","","","","","174","113","113","17","33","",""
"1578","4","rating","canvas-keyboard-response","299","507590","0.0-11.0-0.144","107","2022-3-25","13:59:2","1","18","[""White""]","No","Female","892804","","","","","","","","21","30","57","10","40","0",""
"null","null","clear_screen","canvas-keyboard-response","300","507849","0.0-11.0-1.144","107","2022-3-25","13:59:2","1","18","[""White""]","No","Female","892804","","","","","","","","21","30","57","10","40","",""
"954","4","rating","canvas-keyboard-response","301","508815","0.0-11.0-0.145","107","2022-3-25","13:59:2","1","18","[""White""]","No","Female","892804","","","","","","","","221","57","113","25","40","1",""
"null","null","clear_screen","canvas-keyboard-response","302","509074","0.0-11.0-1.145","107","2022-3-25","13:59:2","1","18","[""White""]","No","Female","892804","","","","","","","","221","57","113","25","40","",""
"1985","4","rating","canvas-keyboard-response","303","511071","0.0-11.0-0.146","107","2022-3-25","13:59:2","1","18","[""White""]","No","Female","892804","","","","","","","","172","113","57","17","33","0",""
"null","null","clear_screen","canvas-keyboard-response","304","511330","0.0-11.0-1.146","107","2022-3-25","13:59:2","1","18","[""White""]","No","Female","892804","","","","","","","","172","113","57","17","33","",""
"6817","7","rating","canvas-keyboard-response","305","518158","0.0-11.0-0.147","107","2022-3-25","13:59:2","1","18","[""White""]","No","Female","892804","","","","","","","","278","85","113","33","40","0",""
"null","null","clear_screen","canvas-keyboard-response","306","518416","0.0-11.0-1.147","107","2022-3-25","13:59:2","1","18","[""White""]","No","Female","892804","","","","","","","","278","85","113","33","40","",""
"1690","7","rating","canvas-keyboard-response","307","520118","0.0-11.0-0.148","107","2022-3-25","13:59:2","1","18","[""White""]","No","Female","892804","","","","","","","","157","85","85","17","33","0",""
"null","null","clear_screen","canvas-keyboard-response","308","520377","0.0-11.0-1.148","107","2022-3-25","13:59:2","1","18","[""White""]","No","Female","892804","","","","","","","","157","85","85","17","33","",""
"1594","9","rating","canvas-keyboard-response","309","521982","0.0-11.0-0.149","107","2022-3-25","13:59:2","1","18","[""White""]","No","Female","892804","","","","","","","","185","140","140","17","25","1",""
"null","null","clear_screen","canvas-keyboard-response","310","522242","0.0-11.0-1.149","107","2022-3-25","13:59:2","1","18","[""White""]","No","Female","892804","","","","","","","","185","140","140","17","25","",""
"1626","6","rating","canvas-keyboard-response","311","523878","0.0-11.0-0.150","107","2022-3-25","13:59:2","1","18","[""White""]","No","Female","892804","","","","","","","","90","113","140","10","40","0",""
"null","null","clear_screen","canvas-keyboard-response","312","524138","0.0-11.0-1.150","107","2022-3-25","13:59:2","1","18","[""White""]","No","Female","892804","","","","","","","","90","113","140","10","40","",""
"1758","9","rating","canvas-keyboard-response","313","525911","0.0-11.0-0.151","107","2022-3-25","13:59:2","1","18","[""White""]","No","Female","892804","","","","","","","","238","113","85","25","33","0",""
"null","null","clear_screen","canvas-keyboard-response","314","526172","0.0-11.0-1.151","107","2022-3-25","13:59:2","1","18","[""White""]","No","Female","892804","","","","","","","","238","113","85","25","33","",""
"1755","6","rating","canvas-keyboard-response","315","527942","0.0-11.0-0.152","107","2022-3-25","13:59:2","1","18","[""White""]","No","Female","892804","","","","","","","","108","140","85","10","40","1",""
"null","null","clear_screen","canvas-keyboard-response","316","528202","0.0-11.0-1.152","107","2022-3-25","13:59:2","1","18","[""White""]","No","Female","892804","","","","","","","","108","140","85","10","40","",""
"2512","6","rating","canvas-keyboard-response","317","530726","0.0-11.0-0.153","107","2022-3-25","13:59:2","1","18","[""White""]","No","Female","892804","","","","","","","","16","30","57","10","33","0",""
"null","null","clear_screen","canvas-keyboard-response","318","530986","0.0-11.0-1.153","107","2022-3-25","13:59:2","1","18","[""White""]","No","Female","892804","","","","","","","","16","30","57","10","33","",""
"1671","6","rating","canvas-keyboard-response","319","532670","0.0-11.0-0.154","107","2022-3-25","13:59:2","1","18","[""White""]","No","Female","892804","","","","","","","","61","85","57","10","33","1",""
"null","null","clear_screen","canvas-keyboard-response","320","532931","0.0-11.0-1.154","107","2022-3-25","13:59:2","1","18","[""White""]","No","Female","892804","","","","","","","","61","85","57","10","33","",""
"3960","4","rating","canvas-keyboard-response","321","536902","0.0-11.0-0.155","107","2022-3-25","13:59:2","1","18","[""White""]","No","Female","892804","","","","","","","","217","57","140","25","33","0",""
"null","null","clear_screen","canvas-keyboard-response","322","537162","0.0-11.0-1.155","107","2022-3-25","13:59:2","1","18","[""White""]","No","Female","892804","","","","","","","","217","57","140","25","33","",""
"1510","8","rating","canvas-keyboard-response","323","538686","0.0-11.0-0.156","107","2022-3-25","13:59:2","1","18","[""White""]","No","Female","892804","","","","","","","","73","113","85","10","17","1",""
"null","null","clear_screen","canvas-keyboard-response","324","538945","0.0-11.0-1.156","107","2022-3-25","13:59:2","1","18","[""White""]","No","Female","892804","","","","","","","","73","113","85","10","17","",""
"1649","7","rating","canvas-keyboard-response","325","540606","0.0-11.0-0.157","107","2022-3-25","13:59:2","1","18","[""White""]","No","Female","892804","","","","","","","","184","140","113","17","25","0",""
"null","null","clear_screen","canvas-keyboard-response","326","540865","0.0-11.0-1.157","107","2022-3-25","13:59:2","1","18","[""White""]","No","Female","892804","","","","","","","","184","140","113","17","25","",""
"1618","3","rating","canvas-keyboard-response","327","542495","0.0-11.0-0.158","107","2022-3-25","13:59:2","1","18","[""White""]","No","Female","892804","","","","","","","","12","30","85","10","25","0",""
"null","null","clear_screen","canvas-keyboard-response","328","542754","0.0-11.0-1.158","107","2022-3-25","13:59:2","1","18","[""White""]","No","Female","892804","","","","","","","","12","30","85","10","25","",""
"1945","9","rating","canvas-keyboard-response","329","544709","0.0-11.0-0.159","107","2022-3-25","13:59:2","1","18","[""White""]","No","Female","892804","","","","","","","","134","57","57","17","25","0",""
"null","null","clear_screen","canvas-keyboard-response","330","544968","0.0-11.0-1.159","107","2022-3-25","13:59:2","1","18","[""White""]","No","Female","892804","","","","","","","","134","57","57","17","25","",""
"1625","4","rating","canvas-keyboard-response","331","546606","0.0-11.0-0.160","107","2022-3-25","13:59:2","1","18","[""White""]","No","Female","892804","","","","","","","","142","57","140","17","33","0",""
"null","null","clear_screen","canvas-keyboard-response","332","546865","0.0-11.0-1.160","107","2022-3-25","13:59:2","1","18","[""White""]","No","Female","892804","","","","","","","","142","57","140","17","33","",""
"1594","7","rating","canvas-keyboard-response","333","548470","0.0-11.0-0.161","107","2022-3-25","13:59:2","1","18","[""White""]","No","Female","892804","","","","","","","","188","140","85","17","33","1",""
"null","null","clear_screen","canvas-keyboard-response","334","548729","0.0-11.0-1.161","107","2022-3-25","13:59:2","1","18","[""White""]","No","Female","892804","","","","","","","","188","140","85","17","33","",""
"1626","9","rating","canvas-keyboard-response","335","550366","0.0-11.0-0.162","107","2022-3-25","13:59:2","1","18","[""White""]","No","Female","892804","","","","","","","","260","30","30","33","40","1",""
"null","null","clear_screen","canvas-keyboard-response","336","550625","0.0-11.0-1.162","107","2022-3-25","13:59:2","1","18","[""White""]","No","Female","892804","","","","","","","","260","30","30","33","40","",""
"2066","5","rating","canvas-keyboard-response","337","552702","0.0-11.0-0.163","107","2022-3-25","13:59:2","1","18","[""White""]","No","Female","892804","","","","","","","","208","30","113","25","40","1",""
"null","null","clear_screen","canvas-keyboard-response","338","552961","0.0-11.0-1.163","107","2022-3-25","13:59:2","1","18","[""White""]","No","Female","892804","","","","","","","","208","30","113","25","40","",""
"2834","4","rating","canvas-keyboard-response","339","555805","0.0-11.0-0.164","107","2022-3-25","13:59:2","1","18","[""White""]","No","Female","892804","","","","","","","","224","85","140","25","25","0",""
"null","null","clear_screen","canvas-keyboard-response","340","556064","0.0-11.0-1.164","107","2022-3-25","13:59:2","1","18","[""White""]","No","Female","892804","","","","","","","","224","85","140","25","25","",""
"2282","7","rating","canvas-keyboard-response","341","558359","0.0-11.0-0.165","107","2022-3-25","13:59:2","1","18","[""White""]","No","Female","892804","","","","","","","","121","30","57","17","33","1",""
"null","null","clear_screen","canvas-keyboard-response","342","558622","0.0-11.0-1.165","107","2022-3-25","13:59:2","1","18","[""White""]","No","Female","892804","","","","","","","","121","30","57","17","33","",""
"2345","2","rating","canvas-keyboard-response","343","560982","0.0-11.0-0.166","107","2022-3-25","13:59:2","1","18","[""White""]","No","Female","892804","","","","","","","","96","140","30","10","25","1",""
"null","null","clear_screen","canvas-keyboard-response","344","561243","0.0-11.0-1.166","107","2022-3-25","13:59:2","1","18","[""White""]","No","Female","892804","","","","","","","","96","140","30","10","25","",""
"2958","3","rating","canvas-keyboard-response","345","564215","0.0-11.0-0.167","107","2022-3-25","13:59:2","1","18","[""White""]","No","Female","892804","","","","","","","","230","85","30","25","40","0",""
"null","null","clear_screen","canvas-keyboard-response","346","564474","0.0-11.0-1.167","107","2022-3-25","13:59:2","1","18","[""White""]","No","Female","892804","","","","","","","","230","85","30","25","40","",""
"2840","4","rating","canvas-keyboard-response","347","567326","0.0-11.0-0.168","107","2022-3-25","13:59:2","1","18","[""White""]","No","Female","892804","","","","","","","","67","85","85","10","40","1",""
"null","null","clear_screen","canvas-keyboard-response","348","567585","0.0-11.0-1.168","107","2022-3-25","13:59:2","1","18","[""White""]","No","Female","892804","","","","","","","","67","85","85","10","40","",""
"2704","9","rating","canvas-keyboard-response","349","570302","0.0-11.0-0.169","107","2022-3-25","13:59:2","1","18","[""White""]","No","Female","892804","","","","","","","","169","113","113","17","25","1",""
"null","null","clear_screen","canvas-keyboard-response","350","570561","0.0-11.0-1.169","107","2022-3-25","13:59:2","1","18","[""White""]","No","Female","892804","","","","","","","","169","113","113","17","25","",""
"1728","7","rating","canvas-keyboard-response","351","572303","0.0-11.0-0.170","107","2022-3-25","13:59:2","1","18","[""White""]","No","Female","892804","","","","","","","","296","57","113","40","40","0",""
"null","null","clear_screen","canvas-keyboard-response","352","572562","0.0-11.0-1.170","107","2022-3-25","13:59:2","1","18","[""White""]","No","Female","892804","","","","","","","","296","57","113","40","40","",""
"3375","6","rating","canvas-keyboard-response","353","575950","0.0-11.0-0.171","107","2022-3-25","13:59:2","1","18","[""White""]","No","Female","892804","","","","","","","","166","113","30","17","25","1",""
"null","null","clear_screen","canvas-keyboard-response","354","576210","0.0-11.0-1.171","107","2022-3-25","13:59:2","1","18","[""White""]","No","Female","892804","","","","","","","","166","113","30","17","25","",""
"1552","4","rating","canvas-keyboard-response","355","577774","0.0-11.0-0.172","107","2022-3-25","13:59:2","1","18","[""White""]","No","Female","892804","","","","","","","","147","57","140","17","40","1",""
"null","null","clear_screen","canvas-keyboard-response","356","578034","0.0-11.0-1.172","107","2022-3-25","13:59:2","1","18","[""White""]","No","Female","892804","","","","","","","","147","57","140","17","40","",""
"1673","7","rating","canvas-keyboard-response","357","579718","0.0-11.0-0.173","107","2022-3-25","13:59:2","1","18","[""White""]","No","Female","892804","","","","","","","","262","30","85","33","40","0",""
"null","null","clear_screen","canvas-keyboard-response","358","579977","0.0-11.0-1.173","107","2022-3-25","13:59:2","1","18","[""White""]","No","Female","892804","","","","","","","","262","30","85","33","40","",""
"1539","8","rating","canvas-keyboard-response","359","581526","0.0-11.0-0.174","107","2022-3-25","13:59:2","1","18","[""White""]","No","Female","892804","","","","","","","","1","30","57","10","10","1",""
"null","null","clear_screen","canvas-keyboard-response","360","581789","0.0-11.0-1.174","107","2022-3-25","13:59:2","1","18","[""White""]","No","Female","892804","","","","","","","","1","30","57","10","10","",""
"1654","8","rating","canvas-keyboard-response","361","583454","0.0-11.0-0.175","107","2022-3-25","13:59:2","1","18","[""White""]","No","Female","892804","","","","","","","","298","85","113","40","40","1",""
"null","null","clear_screen","canvas-keyboard-response","362","583714","0.0-11.0-1.175","107","2022-3-25","13:59:2","1","18","[""White""]","No","Female","892804","","","","","","","","298","85","113","40","40","",""
"2498","2","rating","canvas-keyboard-response","363","586222","0.0-11.0-0.176","107","2022-3-25","13:59:2","1","18","[""White""]","No","Female","892804","","","","","","","","65","85","30","10","40","1",""
"null","null","clear_screen","canvas-keyboard-response","364","586481","0.0-11.0-1.176","107","2022-3-25","13:59:2","1","18","[""White""]","No","Female","892804","","","","","","","","65","85","30","10","40","",""
"3929","7","rating","canvas-keyboard-response","365","590422","0.0-11.0-0.177","107","2022-3-25","13:59:2","1","18","[""White""]","No","Female","892804","","","","","","","","104","140","113","10","33","1",""
"null","null","clear_screen","canvas-keyboard-response","366","590681","0.0-11.0-1.177","107","2022-3-25","13:59:2","1","18","[""White""]","No","Female","892804","","","","","","","","104","140","113","10","33","",""
"1993","4","rating","canvas-keyboard-response","367","592686","0.0-11.0-0.178","107","2022-3-25","13:59:2","1","18","[""White""]","No","Female","892804","","","","","","","","160","85","30","17","40","1",""
"null","null","clear_screen","canvas-keyboard-response","368","592944","0.0-11.0-1.178","107","2022-3-25","13:59:2","1","18","[""White""]","No","Female","892804","","","","","","","","160","85","30","17","40","",""
"3387","3","rating","canvas-keyboard-response","369","596342","0.0-11.0-0.179","107","2022-3-25","13:59:2","1","18","[""White""]","No","Female","892804","","","","","","","","81","113","30","10","33","0",""
"null","null","clear_screen","canvas-keyboard-response","370","596601","0.0-11.0-1.179","107","2022-3-25","13:59:2","1","18","[""White""]","No","Female","892804","","","","","","","","81","113","30","10","33","",""
"1018","3","rating","canvas-keyboard-response","371","597629","0.0-11.0-0.180","107","2022-3-25","13:59:2","1","18","[""White""]","No","Female","892804","","","","","","","","23","30","113","10","40","0",""
"null","null","clear_screen","canvas-keyboard-response","372","597889","0.0-11.0-1.180","107","2022-3-25","13:59:2","1","18","[""White""]","No","Female","892804","","","","","","","","23","30","113","10","40","",""
"2402","7","rating","canvas-keyboard-response","373","600301","0.0-11.0-0.181","107","2022-3-25","13:59:2","1","18","[""White""]","No","Female","892804","","","","","","","","220","57","85","25","40","1",""
"null","null","clear_screen","canvas-keyboard-response","374","600560","0.0-11.0-1.181","107","2022-3-25","13:59:2","1","18","[""White""]","No","Female","892804","","","","","","","","220","57","85","25","40","",""
"2585","7","rating","canvas-keyboard-response","375","603158","0.0-11.0-0.182","107","2022-3-25","13:59:2","1","18","[""White""]","No","Female","892804","","","","","","","","255","140","140","25","40","0",""
"null","null","clear_screen","canvas-keyboard-response","376","603422","0.0-11.0-1.182","107","2022-3-25","13:59:2","1","18","[""White""]","No","Female","892804","","","","","","","","255","140","140","25","40","",""
"2162","4","rating","canvas-keyboard-response","377","605598","0.0-11.0-0.183","107","2022-3-25","13:59:2","1","18","[""White""]","No","Female","892804","","","","","","","","259","30","140","33","33","0",""
"null","null","clear_screen","canvas-keyboard-response","378","605858","0.0-11.0-1.183","107","2022-3-25","13:59:2","1","18","[""White""]","No","Female","892804","","","","","","","","259","30","140","33","33","",""
"1481","7","rating","canvas-keyboard-response","379","607350","0.0-11.0-0.184","107","2022-3-25","13:59:2","1","18","[""White""]","No","Female","892804","","","","","","","","135","57","85","17","25","1",""
"null","null","clear_screen","canvas-keyboard-response","380","607612","0.0-11.0-1.184","107","2022-3-25","13:59:2","1","18","[""White""]","No","Female","892804","","","","","","","","135","57","85","17","25","",""
"933","7","rating","canvas-keyboard-response","381","608558","0.0-11.0-0.185","107","2022-3-25","13:59:2","1","18","[""White""]","No","Female","892804","","","","","","","","168","113","85","17","25","1",""
"null","null","clear_screen","canvas-keyboard-response","382","608818","0.0-11.0-1.185","107","2022-3-25","13:59:2","1","18","[""White""]","No","Female","892804","","","","","","","","168","113","85","17","25","",""
"2648","7","rating","canvas-keyboard-response","383","611478","0.0-11.0-0.186","107","2022-3-25","13:59:2","1","18","[""White""]","No","Female","892804","","","","","","","","215","57","85","25","33","0",""
"null","null","clear_screen","canvas-keyboard-response","384","611737","0.0-11.0-1.186","107","2022-3-25","13:59:2","1","18","[""White""]","No","Female","892804","","","","","","","","215","57","85","25","33","",""
"2904","5","rating","canvas-keyboard-response","385","614654","0.0-11.0-0.187","107","2022-3-25","13:59:2","1","18","[""White""]","No","Female","892804","","","","","","","","110","140","140","10","40","0",""
"null","null","clear_screen","canvas-keyboard-response","386","614914","0.0-11.0-1.187","107","2022-3-25","13:59:2","1","18","[""White""]","No","Female","892804","","","","","","","","110","140","140","10","40","",""
"3198","4","rating","canvas-keyboard-response","387","618126","0.0-11.0-0.188","107","2022-3-25","13:59:2","1","18","[""White""]","No","Female","892804","","","","","","","","197","30","85","25","25","1",""
"null","null","clear_screen","canvas-keyboard-response","388","618384","0.0-11.0-1.188","107","2022-3-25","13:59:2","1","18","[""White""]","No","Female","892804","","","","","","","","197","30","85","25","25","",""
"2003","7","rating","canvas-keyboard-response","389","620398","0.0-11.0-0.189","107","2022-3-25","13:59:2","1","18","[""White""]","No","Female","892804","","","","","","","","170","113","140","17","25","0",""
"null","null","clear_screen","canvas-keyboard-response","390","620658","0.0-11.0-1.189","107","2022-3-25","13:59:2","1","18","[""White""]","No","Female","892804","","","","","","","","170","113","140","17","25","",""
"1770","3","rating","canvas-keyboard-response","391","622437","0.0-11.0-0.190","107","2022-3-25","13:59:2","1","18","[""White""]","No","Female","892804","","","","","","","","123","30","113","17","33","0",""
"null","null","clear_screen","canvas-keyboard-response","392","622697","0.0-11.0-1.190","107","2022-3-25","13:59:2","1","18","[""White""]","No","Female","892804","","","","","","","","123","30","113","17","33","",""
"1777","8","rating","canvas-keyboard-response","393","624485","0.0-11.0-0.191","107","2022-3-25","13:59:2","1","18","[""White""]","No","Female","892804","","","","","","","","270","57","85","33","40","1",""
"null","null","clear_screen","canvas-keyboard-response","394","624745","0.0-11.0-1.191","107","2022-3-25","13:59:2","1","18","[""White""]","No","Female","892804","","","","","","","","270","57","85","33","40","",""
"1856","6","rating","canvas-keyboard-response","395","626615","0.0-11.0-0.192","107","2022-3-25","13:59:2","1","18","[""White""]","No","Female","892804","","","","","","","","17","30","85","10","33","0",""
"null","null","clear_screen","canvas-keyboard-response","396","626875","0.0-11.0-1.192","107","2022-3-25","13:59:2","1","18","[""White""]","No","Female","892804","","","","","","","","17","30","85","10","33","",""
"8215","3","rating","canvas-keyboard-response","397","635102","0.0-11.0-0.193","107","2022-3-25","13:59:2","1","18","[""White""]","No","Female","892804","","","","","","","","55","85","30","10","25","0",""
"null","null","clear_screen","canvas-keyboard-response","398","635361","0.0-11.0-1.193","107","2022-3-25","13:59:2","1","18","[""White""]","No","Female","892804","","","","","","","","55","85","30","10","25","",""
"2299","3","rating","canvas-keyboard-response","399","637670","0.0-11.0-0.194","107","2022-3-25","13:59:2","1","18","[""White""]","No","Female","892804","","","","","","","","144","57","57","17","40","0",""
"null","null","clear_screen","canvas-keyboard-response","400","637929","0.0-11.0-1.194","107","2022-3-25","13:59:2","1","18","[""White""]","No","Female","892804","","","","","","","","144","57","57","17","40","",""
"8306","4","rating","canvas-keyboard-response","401","646245","0.0-11.0-0.195","107","2022-3-25","13:59:2","1","18","[""White""]","No","Female","892804","","","","","","","","4","30","140","10","10","0",""
"null","null","clear_screen","canvas-keyboard-response","402","646504","0.0-11.0-1.195","107","2022-3-25","13:59:2","1","18","[""White""]","No","Female","892804","","","","","","","","4","30","140","10","10","",""
"1969","6","rating","canvas-keyboard-response","403","648485","0.0-11.0-0.196","107","2022-3-25","13:59:2","1","18","[""White""]","No","Female","892804","","","","","","","","161","85","57","17","40","0",""
"null","null","clear_screen","canvas-keyboard-response","404","648745","0.0-11.0-1.196","107","2022-3-25","13:59:2","1","18","[""White""]","No","Female","892804","","","","","","","","161","85","57","17","40","",""
"1169","6","rating","canvas-keyboard-response","405","649925","0.0-11.0-0.197","107","2022-3-25","13:59:2","1","18","[""White""]","No","Female","892804","","","","","","","","10","30","30","10","25","0",""
"null","null","clear_screen","canvas-keyboard-response","406","650185","0.0-11.0-1.197","107","2022-3-25","13:59:2","1","18","[""White""]","No","Female","892804","","","","","","","","10","30","30","10","25","",""
"1730","7","rating","canvas-keyboard-response","407","651926","0.0-11.0-0.198","107","2022-3-25","13:59:2","1","18","[""White""]","No","Female","892804","","","","","","","","156","85","57","17","33","1",""
"null","null","clear_screen","canvas-keyboard-response","408","652184","0.0-11.0-1.198","107","2022-3-25","13:59:2","1","18","[""White""]","No","Female","892804","","","","","","","","156","85","57","17","33","",""
"1617","6","rating","canvas-keyboard-response","409","653814","0.0-11.0-0.199","107","2022-3-25","13:59:2","1","18","[""White""]","No","Female","892804","","","","","","","","83","113","85","10","33","0",""
"null","null","clear_screen","canvas-keyboard-response","410","654073","0.0-11.0-1.199","107","2022-3-25","13:59:2","1","18","[""White""]","No","Female","892804","","","","","","","","83","113","85","10","33","",""
"1824","5","rating","canvas-keyboard-response","411","655911","0.0-11.0-0.200","107","2022-3-25","13:59:2","1","18","[""White""]","No","Female","892804","","","","","","","","141","57","113","17","33","0",""
"null","null","clear_screen","canvas-keyboard-response","412","656173","0.0-11.0-1.200","107","2022-3-25","13:59:2","1","18","[""White""]","No","Female","892804","","","","","","","","141","57","113","17","33","",""
"1498","6","rating","canvas-keyboard-response","413","657686","0.0-11.0-0.201","107","2022-3-25","13:59:2","1","18","[""White""]","No","Female","892804","","","","","","","","297","57","140","40","40","1",""
"null","null","clear_screen","canvas-keyboard-response","414","657946","0.0-11.0-1.201","107","2022-3-25","13:59:2","1","18","[""White""]","No","Female","892804","","","","","","","","297","57","140","40","40","",""
"1446","6","rating","canvas-keyboard-response","415","659406","0.0-11.0-0.202","107","2022-3-25","13:59:2","1","18","[""White""]","No","Female","892804","","","","","","","","82","113","57","10","33","0",""
"null","null","clear_screen","canvas-keyboard-response","416","659667","0.0-11.0-1.202","107","2022-3-25","13:59:2","1","18","[""White""]","No","Female","892804","","","","","","","","82","113","57","10","33","",""
"1374","7","rating","canvas-keyboard-response","417","661053","0.0-11.0-0.203","107","2022-3-25","13:59:2","1","18","[""White""]","No","Female","892804","","","","","","","","78","113","85","10","25","1",""
"null","null","clear_screen","canvas-keyboard-response","418","661313","0.0-11.0-1.203","107","2022-3-25","13:59:2","1","18","[""White""]","No","Female","892804","","","","","","","","78","113","85","10","25","",""
"1498","6","rating","canvas-keyboard-response","419","662822","0.0-11.0-0.204","107","2022-3-25","13:59:2","1","18","[""White""]","No","Female","892804","","","","","","","","158","85","113","17","33","0",""
"null","null","clear_screen","canvas-keyboard-response","420","663081","0.0-11.0-1.204","107","2022-3-25","13:59:2","1","18","[""White""]","No","Female","892804","","","","","","","","158","85","113","17","33","",""
"1992","1","rating","canvas-keyboard-response","421","665086","0.0-11.0-0.205","107","2022-3-25","13:59:2","1","18","[""White""]","No","Female","892804","","","","","","","","9","30","140","10","17","0",""
"null","null","clear_screen","canvas-keyboard-response","422","665346","0.0-11.0-1.205","107","2022-3-25","13:59:2","1","18","[""White""]","No","Female","892804","","","","","","","","9","30","140","10","17","",""
"2199","1","rating","canvas-keyboard-response","423","667558","0.0-11.0-0.206","107","2022-3-25","13:59:2","1","18","[""White""]","No","Female","892804","","","","","","","","186","140","30","17","33","1",""
"null","null","clear_screen","canvas-keyboard-response","424","667823","0.0-11.0-1.206","107","2022-3-25","13:59:2","1","18","[""White""]","No","Female","892804","","","","","","","","186","140","30","17","33","",""
"2335","7","rating","canvas-keyboard-response","425","670173","0.0-11.0-0.207","107","2022-3-25","13:59:2","1","18","[""White""]","No","Female","892804","","","","","","","","36","57","113","10","25","1",""
"null","null","clear_screen","canvas-keyboard-response","426","670434","0.0-11.0-1.207","107","2022-3-25","13:59:2","1","18","[""White""]","No","Female","892804","","","","","","","","36","57","113","10","25","",""
"1975","6","rating","canvas-keyboard-response","427","672422","0.0-11.0-0.208","107","2022-3-25","13:59:2","1","18","[""White""]","No","Female","892804","","","","","","","","44","57","57","10","40","1",""
"null","null","clear_screen","canvas-keyboard-response","428","672683","0.0-11.0-1.208","107","2022-3-25","13:59:2","1","18","[""White""]","No","Female","892804","","","","","","","","44","57","57","10","40","",""
"1846","8","rating","canvas-keyboard-response","429","674541","0.0-11.0-0.209","107","2022-3-25","13:59:2","1","18","[""White""]","No","Female","892804","","","","","","","","56","85","57","10","25","1",""
"null","null","clear_screen","canvas-keyboard-response","430","674802","0.0-11.0-1.209","107","2022-3-25","13:59:2","1","18","[""White""]","No","Female","892804","","","","","","","","56","85","57","10","25","",""
"3256","7","rating","canvas-keyboard-response","431","678070","0.0-11.0-0.210","107","2022-3-25","13:59:2","1","18","[""White""]","No","Female","892804","","","","","","","","194","140","113","17","40","1",""
"null","null","clear_screen","canvas-keyboard-response","432","678329","0.0-11.0-1.210","107","2022-3-25","13:59:2","1","18","[""White""]","No","Female","892804","","","","","","","","194","140","113","17","40","",""
"1623","3","rating","canvas-keyboard-response","433","679965","0.0-11.0-0.211","107","2022-3-25","13:59:2","1","18","[""White""]","No","Female","892804","","","","","","","","22","30","85","10","40","1",""
"null","null","clear_screen","canvas-keyboard-response","434","680226","0.0-11.0-1.211","107","2022-3-25","13:59:2","1","18","[""White""]","No","Female","892804","","","","","","","","22","30","85","10","40","",""
"1751","7","rating","canvas-keyboard-response","435","681989","0.0-11.0-0.212","107","2022-3-25","13:59:2","1","18","[""White""]","No","Female","892804","","","","","","","","254","140","113","25","40","1",""
"null","null","clear_screen","canvas-keyboard-response","436","682249","0.0-11.0-1.212","107","2022-3-25","13:59:2","1","18","[""White""]","No","Female","892804","","","","","","","","254","140","113","25","40","",""
"1961","4","rating","canvas-keyboard-response","437","684221","0.0-11.0-0.213","107","2022-3-25","13:59:2","1","18","[""White""]","No","Female","892804","","","","","","","","272","57","140","33","40","1",""
"null","null","clear_screen","canvas-keyboard-response","438","684481","0.0-11.0-1.213","107","2022-3-25","13:59:2","1","18","[""White""]","No","Female","892804","","","","","","","","272","57","140","33","40","",""
"1816","8","rating","canvas-keyboard-response","439","686309","0.0-11.0-0.214","107","2022-3-25","13:59:2","1","18","[""White""]","No","Female","892804","","","","","","","","116","30","57","17","25","1",""
"null","null","clear_screen","canvas-keyboard-response","440","686569","0.0-11.0-1.214","107","2022-3-25","13:59:2","1","18","[""White""]","No","Female","892804","","","","","","","","116","30","57","17","25","",""
"1153","7","rating","canvas-keyboard-response","441","687734","0.0-11.0-0.215","107","2022-3-25","13:59:2","1","18","[""White""]","No","Female","892804","","","","","","","","11","30","57","10","25","1",""
"null","null","clear_screen","canvas-keyboard-response","442","687992","0.0-11.0-1.215","107","2022-3-25","13:59:2","1","18","[""White""]","No","Female","892804","","","","","","","","11","30","57","10","25","",""
"1505","8","rating","canvas-keyboard-response","443","689509","0.0-11.0-0.216","107","2022-3-25","13:59:2","1","18","[""White""]","No","Female","892804","","","","","","","","202","30","85","25","33","0",""
"null","null","clear_screen","canvas-keyboard-response","444","689769","0.0-11.0-1.216","107","2022-3-25","13:59:2","1","18","[""White""]","No","Female","892804","","","","","","","","202","30","85","25","33","",""
"1914","9","rating","canvas-keyboard-response","445","691693","0.0-11.0-0.217","107","2022-3-25","13:59:2","1","18","[""White""]","No","Female","892804","","","","","","","","227","85","85","25","33","1",""
"null","null","clear_screen","canvas-keyboard-response","446","691952","0.0-11.0-1.217","107","2022-3-25","13:59:2","1","18","[""White""]","No","Female","892804","","","","","","","","227","85","85","25","33","",""
"2137","2","rating","canvas-keyboard-response","447","694101","0.0-11.0-0.218","107","2022-3-25","13:59:2","1","18","[""White""]","No","Female","892804","","","","","","","","8","30","113","10","17","0",""
"null","null","clear_screen","canvas-keyboard-response","448","694360","0.0-11.0-1.218","107","2022-3-25","13:59:2","1","18","[""White""]","No","Female","892804","","","","","","","","8","30","113","10","17","",""
"2369","7","rating","canvas-keyboard-response","449","696742","0.0-11.0-0.219","107","2022-3-25","13:59:2","1","18","[""White""]","No","Female","892804","","","","","","","","79","113","113","10","25","1",""
"null","null","clear_screen","canvas-keyboard-response","450","697000","0.0-11.0-1.219","107","2022-3-25","13:59:2","1","18","[""White""]","No","Female","892804","","","","","","","","79","113","113","10","25","",""
"2049","3","rating","canvas-keyboard-response","451","699062","0.0-11.0-0.220","107","2022-3-25","13:59:2","1","18","[""White""]","No","Female","892804","","","","","","","","204","30","140","25","33","1",""
"null","null","clear_screen","canvas-keyboard-response","452","699321","0.0-11.0-1.220","107","2022-3-25","13:59:2","1","18","[""White""]","No","Female","892804","","","","","","","","204","30","140","25","33","",""
"1649","8","rating","canvas-keyboard-response","453","700981","0.0-11.0-0.221","107","2022-3-25","13:59:2","1","18","[""White""]","No","Female","892804","","","","","","","","153","85","113","17","25","0",""
"null","null","clear_screen","canvas-keyboard-response","454","701241","0.0-11.0-1.221","107","2022-3-25","13:59:2","1","18","[""White""]","No","Female","892804","","","","","","","","153","85","113","17","25","",""
"1714","7","rating","canvas-keyboard-response","455","702965","0.0-11.0-0.222","107","2022-3-25","13:59:2","1","18","[""White""]","No","Female","892804","","","","","","","","111","30","57","17","17","0",""
"null","null","clear_screen","canvas-keyboard-response","456","703225","0.0-11.0-1.222","107","2022-3-25","13:59:2","1","18","[""White""]","No","Female","892804","","","","","","","","111","30","57","17","17","",""
"1880","7","rating","canvas-keyboard-response","457","705116","0.0-11.0-0.223","107","2022-3-25","13:59:2","1","18","[""White""]","No","Female","892804","","","","","","","","245","113","140","25","40","0",""
"null","null","clear_screen","canvas-keyboard-response","458","705375","0.0-11.0-1.223","107","2022-3-25","13:59:2","1","18","[""White""]","No","Female","892804","","","","","","","","245","113","140","25","40","",""
"1352","8","rating","canvas-keyboard-response","459","706742","0.0-11.0-0.224","107","2022-3-25","13:59:2","1","18","[""White""]","No","Female","892804","","","","","","","","273","85","113","33","33","0",""
"null","null","clear_screen","canvas-keyboard-response","460","707005","0.0-11.0-1.224","107","2022-3-25","13:59:2","1","18","[""White""]","No","Female","892804","","","","","","","","273","85","113","33","33","",""
"1642","2","rating","canvas-keyboard-response","461","708661","0.0-11.0-0.225","107","2022-3-25","13:59:2","1","18","[""White""]","No","Female","892804","","","","","","","","19","30","140","10","33","0",""
"null","null","clear_screen","canvas-keyboard-response","462","708920","0.0-11.0-1.225","107","2022-3-25","13:59:2","1","18","[""White""]","No","Female","892804","","","","","","","","19","30","140","10","33","",""
"1872","9","rating","canvas-keyboard-response","463","710805","0.0-11.0-0.226","107","2022-3-25","13:59:2","1","18","[""White""]","No","Female","892804","","","","","","","","283","113","85","33","40","1",""
"null","null","clear_screen","canvas-keyboard-response","464","711067","0.0-11.0-1.226","107","2022-3-25","13:59:2","1","18","[""White""]","No","Female","892804","","","","","","","","283","113","85","33","40","",""
"3182","6","rating","canvas-keyboard-response","465","714262","0.0-11.0-0.227","107","2022-3-25","13:59:2","1","18","[""White""]","No","Female","892804","","","","","","","","267","57","140","33","33","0",""
"null","null","clear_screen","canvas-keyboard-response","466","714521","0.0-11.0-1.227","107","2022-3-25","13:59:2","1","18","[""White""]","No","Female","892804","","","","","","","","267","57","140","33","33","",""
"1536","7","rating","canvas-keyboard-response","467","716070","0.0-11.0-0.228","107","2022-3-25","13:59:2","1","18","[""White""]","No","Female","892804","","","","","","","","232","85","85","25","40","0",""
