"rt","response","trialType","trial_type","trial_index","time_elapsed","internal_node_id","sub_n","date","time","leftRight","age","race","ethnicity","gender","exp_duration","success","timeout","failed_images","failed_audio","failed_video","stimulus","view_history","trialID","radius_a","radius_b","angle_a","angle_b","lrCond","question_order"
"6139","{""response"":""112""}","enter-sub-number","survey-html-form","0","6149","0.0-0.0","112","2022-3-30","14:20:47","1","22","[""White""]","No","Female","716239","","","","","","","","","","","","","",""
"","","","fullscreen","1","8767","0.0-1.0","112","2022-3-30","14:20:47","1","22","[""White""]","No","Female","716239","true","","","","","","","","","","","","",""
"","","","preload","2","8783","0.0-2.0","112","2022-3-30","14:20:47","1","22","[""White""]","No","Female","716239","true","false","[]","[]","[]","","","","","","","","",""
"3230","0","","html-button-response","3","12017","0.0-3.0","112","2022-3-30","14:20:47","1","22","[""White""]","No","Female","716239","","","","","","<div style= ""font-size:25px;"" <p> <strong> Welcome to the experiment! </strong><br> <p style=""color:#8B0000; font-size:25px;""><strong> Please do NOT exit full screen until you are done with the experiment. </strong> </p><p style=""font-size:25px;color:#8B0000;""> <strong> The experiment will be canceled and your data will be lost <br> if you try to go back or refresh the page at any point during the experiment.</strong> </p><br><p> <strong> Thanks in advance for your contribution to our research! </strong></p>","","","","","","","",""
"5314","","","instructions","4","17335","0.0-4.0","112","2022-3-30","14:20:47","1","22","[""White""]","No","Female","716239","","","","","","","[{""page_index"":0,""viewing_time"":1096},{""page_index"":1,""viewing_time"":2409},{""page_index"":2,""viewing_time"":1808}]","","","","","","",""
"null","null","presentPop","canvas-keyboard-response","5","33354","0.0-5.0","112","2022-3-30","14:20:47","1","22","[""White""]","No","Female","716239","","","","","","","","","","","","","",""
"null","null","clear_screen","canvas-keyboard-response","6","34116","0.0-6.0","112","2022-3-30","14:20:47","1","22","[""White""]","No","Female","716239","","","","","","","","","","","","","",""
"2072","","","instructions","7","36191","0.0-7.0","112","2022-3-30","14:20:47","1","22","[""White""]","No","Female","716239","","","","","","","[{""page_index"":0,""viewing_time"":2072}]","","","","","","",""
"null","null","presentPop","canvas-keyboard-response","8","52206","0.0-8.0","112","2022-3-30","14:20:47","1","22","[""White""]","No","Female","716239","","","","","","","","","","","","","",""
"null","null","clear_screen","canvas-keyboard-response","9","52969","0.0-9.0","112","2022-3-30","14:20:47","1","22","[""White""]","No","Female","716239","","","","","","","","","","","","","",""
"4451","","","instructions","10","57422","0.0-10.0","112","2022-3-30","14:20:47","1","22","[""White""]","No","Female","716239","","","","","","","[{""page_index"":0,""viewing_time"":2468},{""page_index"":1,""viewing_time"":1983}]","","","","","","",""
"25283","9","rating","canvas-keyboard-response","11","83720","0.0-11.0-0.0","112","2022-3-30","14:20:47","1","22","[""White""]","No","Female","716239","","","","","","","","104","140","113","10","33","0",""
"211","9","clear_screen","canvas-keyboard-response","12","83941","0.0-11.0-1.0","112","2022-3-30","14:20:47","1","22","[""White""]","No","Female","716239","","","","","","","","104","140","113","10","33","",""
"13974","7","rating","canvas-keyboard-response","13","97927","0.0-11.0-0.1","112","2022-3-30","14:20:47","1","22","[""White""]","No","Female","716239","","","","","","","","121","30","57","17","33","1",""
"null","null","clear_screen","canvas-keyboard-response","14","98186","0.0-11.0-1.1","112","2022-3-30","14:20:47","1","22","[""White""]","No","Female","716239","","","","","","","","121","30","57","17","33","",""
"2346","5","rating","canvas-keyboard-response","15","100543","0.0-11.0-0.2","112","2022-3-30","14:20:47","1","22","[""White""]","No","Female","716239","","","","","","","","226","85","57","25","33","0",""
"null","null","clear_screen","canvas-keyboard-response","16","100802","0.0-11.0-1.2","112","2022-3-30","14:20:47","1","22","[""White""]","No","Female","716239","","","","","","","","226","85","57","25","33","",""
"2269","1","rating","canvas-keyboard-response","17","103086","0.0-11.0-0.3","112","2022-3-30","14:20:47","1","22","[""White""]","No","Female","716239","","","","","","","","186","140","30","17","33","1",""
"null","null","clear_screen","canvas-keyboard-response","18","103347","0.0-11.0-1.3","112","2022-3-30","14:20:47","1","22","[""White""]","No","Female","716239","","","","","","","","186","140","30","17","33","",""
"2088","1","rating","canvas-keyboard-response","19","105447","0.0-11.0-0.4","112","2022-3-30","14:20:47","1","22","[""White""]","No","Female","716239","","","","","","","","286","140","30","33","40","0",""
"null","null","clear_screen","canvas-keyboard-response","20","105709","0.0-11.0-1.4","112","2022-3-30","14:20:47","1","22","[""White""]","No","Female","716239","","","","","","","","286","140","30","33","40","",""
"1791","9","rating","canvas-keyboard-response","21","107511","0.0-11.0-0.5","112","2022-3-30","14:20:47","1","22","[""White""]","No","Female","716239","","","","","","","","6","30","57","10","17","0",""
"null","null","clear_screen","canvas-keyboard-response","22","107771","0.0-11.0-1.5","112","2022-3-30","14:20:47","1","22","[""White""]","No","Female","716239","","","","","","","","6","30","57","10","17","",""
"2991","1","rating","canvas-keyboard-response","23","110775","0.0-11.0-0.6","112","2022-3-30","14:20:47","1","22","[""White""]","No","Female","716239","","","","","","","","99","140","113","10","25","1",""
"null","null","clear_screen","canvas-keyboard-response","24","111034","0.0-11.0-1.6","112","2022-3-30","14:20:47","1","22","[""White""]","No","Female","716239","","","","","","","","99","140","113","10","25","",""
"2977","5","rating","canvas-keyboard-response","25","114023","0.0-11.0-0.7","112","2022-3-30","14:20:47","1","22","[""White""]","No","Female","716239","","","","","","","","232","85","85","25","40","0",""
"null","null","clear_screen","canvas-keyboard-response","26","114283","0.0-11.0-1.7","112","2022-3-30","14:20:47","1","22","[""White""]","No","Female","716239","","","","","","","","232","85","85","25","40","",""
"3648","5","rating","canvas-keyboard-response","27","117943","0.0-11.0-0.8","112","2022-3-30","14:20:47","1","22","[""White""]","No","Female","716239","","","","","","","","3","30","113","10","10","0",""
"null","null","clear_screen","canvas-keyboard-response","28","118202","0.0-11.0-1.8","112","2022-3-30","14:20:47","1","22","[""White""]","No","Female","716239","","","","","","","","3","30","113","10","10","",""
"1334","1","rating","canvas-keyboard-response","29","119551","0.0-11.0-0.9","112","2022-3-30","14:20:47","1","22","[""White""]","No","Female","716239","","","","","","","","240","113","140","25","33","1",""
"null","null","clear_screen","canvas-keyboard-response","30","119813","0.0-11.0-1.9","112","2022-3-30","14:20:47","1","22","[""White""]","No","Female","716239","","","","","","","","240","113","140","25","33","",""
"1763","4","rating","canvas-keyboard-response","31","121590","0.0-11.0-0.10","112","2022-3-30","14:20:47","1","22","[""White""]","No","Female","716239","","","","","","","","136","57","113","17","25","0",""
"null","null","clear_screen","canvas-keyboard-response","32","121849","0.0-11.0-1.10","112","2022-3-30","14:20:47","1","22","[""White""]","No","Female","716239","","","","","","","","136","57","113","17","25","",""
"1282","5","rating","canvas-keyboard-response","33","123142","0.0-11.0-0.11","112","2022-3-30","14:20:47","1","22","[""White""]","No","Female","716239","","","","","","","","168","113","85","17","25","1",""
"null","null","clear_screen","canvas-keyboard-response","34","123405","0.0-11.0-1.11","112","2022-3-30","14:20:47","1","22","[""White""]","No","Female","716239","","","","","","","","168","113","85","17","25","",""
"670","5","rating","canvas-keyboard-response","35","124087","0.0-11.0-0.12","112","2022-3-30","14:20:47","1","22","[""White""]","No","Female","716239","","","","","","","","173","113","85","17","33","1",""
"null","null","clear_screen","canvas-keyboard-response","36","124346","0.0-11.0-1.12","112","2022-3-30","14:20:47","1","22","[""White""]","No","Female","716239","","","","","","","","173","113","85","17","33","",""
"2094","9","rating","canvas-keyboard-response","37","126455","0.0-11.0-0.13","112","2022-3-30","14:20:47","1","22","[""White""]","No","Female","716239","","","","","","","","28","57","30","10","17","0",""
"null","null","clear_screen","canvas-keyboard-response","38","126715","0.0-11.0-1.13","112","2022-3-30","14:20:47","1","22","[""White""]","No","Female","716239","","","","","","","","28","57","30","10","17","",""
"2254","6","rating","canvas-keyboard-response","39","128982","0.0-11.0-0.14","112","2022-3-30","14:20:47","1","22","[""White""]","No","Female","716239","","","","","","","","155","85","30","17","33","0",""
"null","null","clear_screen","canvas-keyboard-response","40","129240","0.0-11.0-1.14","112","2022-3-30","14:20:47","1","22","[""White""]","No","Female","716239","","","","","","","","155","85","30","17","33","",""
"1145","1","rating","canvas-keyboard-response","41","130398","0.0-11.0-0.15","112","2022-3-30","14:20:47","1","22","[""White""]","No","Female","716239","","","","","","","","181","140","30","17","25","0",""
"null","null","clear_screen","canvas-keyboard-response","42","130659","0.0-11.0-1.15","112","2022-3-30","14:20:47","1","22","[""White""]","No","Female","716239","","","","","","","","181","140","30","17","25","",""
"1256","1","rating","canvas-keyboard-response","43","131926","0.0-11.0-0.16","112","2022-3-30","14:20:47","1","22","[""White""]","No","Female","716239","","","","","","","","280","113","140","33","33","0",""
"null","null","clear_screen","canvas-keyboard-response","44","132185","0.0-11.0-1.16","112","2022-3-30","14:20:47","1","22","[""White""]","No","Female","716239","","","","","","","","280","113","140","33","33","",""
"1779","3","rating","canvas-keyboard-response","45","133974","0.0-11.0-0.17","112","2022-3-30","14:20:47","1","22","[""White""]","No","Female","716239","","","","","","","","212","57","140","25","25","0",""
"null","null","clear_screen","canvas-keyboard-response","46","134235","0.0-11.0-1.17","112","2022-3-30","14:20:47","1","22","[""White""]","No","Female","716239","","","","","","","","212","57","140","25","25","",""
"1336","4","rating","canvas-keyboard-response","47","135584","0.0-11.0-0.18","112","2022-3-30","14:20:47","1","22","[""White""]","No","Female","716239","","","","","","","","296","57","113","40","40","0",""
"null","null","clear_screen","canvas-keyboard-response","48","135844","0.0-11.0-1.18","112","2022-3-30","14:20:47","1","22","[""White""]","No","Female","716239","","","","","","","","296","57","113","40","40","",""
"1135","9","rating","canvas-keyboard-response","49","136992","0.0-11.0-0.19","112","2022-3-30","14:20:47","1","22","[""White""]","No","Female","716239","","","","","","","","33","57","30","10","25","1",""
"null","null","clear_screen","canvas-keyboard-response","50","137248","0.0-11.0-1.19","112","2022-3-30","14:20:47","1","22","[""White""]","No","Female","716239","","","","","","","","33","57","30","10","25","",""
"1648","8","rating","canvas-keyboard-response","51","138911","0.0-11.0-0.20","112","2022-3-30","14:20:47","1","22","[""White""]","No","Female","716239","","","","","","","","207","30","85","25","40","0",""
"null","null","clear_screen","canvas-keyboard-response","52","139171","0.0-11.0-1.20","112","2022-3-30","14:20:47","1","22","[""White""]","No","Female","716239","","","","","","","","207","30","85","25","40","",""
"1392","2","rating","canvas-keyboard-response","53","140575","0.0-11.0-0.21","112","2022-3-30","14:20:47","1","22","[""White""]","No","Female","716239","","","","","","","","222","57","140","25","40","0",""
"null","null","clear_screen","canvas-keyboard-response","54","140833","0.0-11.0-1.21","112","2022-3-30","14:20:47","1","22","[""White""]","No","Female","716239","","","","","","","","222","57","140","25","40","",""
"2494","7","rating","canvas-keyboard-response","55","143343","0.0-11.0-0.22","112","2022-3-30","14:20:47","1","22","[""White""]","No","Female","716239","","","","","","","","50","85","30","10","17","1",""
"null","null","clear_screen","canvas-keyboard-response","56","143602","0.0-11.0-1.22","112","2022-3-30","14:20:47","1","22","[""White""]","No","Female","716239","","","","","","","","50","85","30","10","17","",""
"2124","3","rating","canvas-keyboard-response","57","145743","0.0-11.0-0.23","112","2022-3-30","14:20:47","1","22","[""White""]","No","Female","716239","","","","","","","","217","57","140","25","33","0",""
"null","null","clear_screen","canvas-keyboard-response","58","146007","0.0-11.0-1.23","112","2022-3-30","14:20:47","1","22","[""White""]","No","Female","716239","","","","","","","","217","57","140","25","33","",""
"3209","7","rating","canvas-keyboard-response","59","149231","0.0-11.0-0.24","112","2022-3-30","14:20:47","1","22","[""White""]","No","Female","716239","","","","","","","","39","57","57","10","33","0",""
"null","null","clear_screen","canvas-keyboard-response","60","149491","0.0-11.0-1.24","112","2022-3-30","14:20:47","1","22","[""White""]","No","Female","716239","","","","","","","","39","57","57","10","33","",""
"4613","4","rating","canvas-keyboard-response","61","154118","0.0-11.0-0.25","112","2022-3-30","14:20:47","1","22","[""White""]","No","Female","716239","","","","","","","","238","113","85","25","33","0",""
"null","null","clear_screen","canvas-keyboard-response","62","154378","0.0-11.0-1.25","112","2022-3-30","14:20:47","1","22","[""White""]","No","Female","716239","","","","","","","","238","113","85","25","33","",""
"1881","1","rating","canvas-keyboard-response","63","156271","0.0-11.0-0.26","112","2022-3-30","14:20:47","1","22","[""White""]","No","Female","716239","","","","","","","","289","140","113","33","40","0",""
"null","null","clear_screen","canvas-keyboard-response","64","156531","0.0-11.0-1.26","112","2022-3-30","14:20:47","1","22","[""White""]","No","Female","716239","","","","","","","","289","140","113","33","40","",""
"2073","6","rating","canvas-keyboard-response","65","158614","0.0-11.0-0.27","112","2022-3-30","14:20:47","1","22","[""White""]","No","Female","716239","","","","","","","","275","85","30","33","40","1",""
"null","null","clear_screen","canvas-keyboard-response","66","158873","0.0-11.0-1.27","112","2022-3-30","14:20:47","1","22","[""White""]","No","Female","716239","","","","","","","","275","85","30","33","40","",""
"1520","4","rating","canvas-keyboard-response","67","160407","0.0-11.0-0.28","112","2022-3-30","14:20:47","1","22","[""White""]","No","Female","716239","","","","","","","","98","140","85","10","25","0",""
"null","null","clear_screen","canvas-keyboard-response","68","160668","0.0-11.0-1.28","112","2022-3-30","14:20:47","1","22","[""White""]","No","Female","716239","","","","","","","","98","140","85","10","25","",""
"3513","3","rating","canvas-keyboard-response","69","164192","0.0-11.0-0.29","112","2022-3-30","14:20:47","1","22","[""White""]","No","Female","716239","","","","","","","","285","113","140","33","40","0",""
"null","null","clear_screen","canvas-keyboard-response","70","164451","0.0-11.0-1.29","112","2022-3-30","14:20:47","1","22","[""White""]","No","Female","716239","","","","","","","","285","113","140","33","40","",""
"1159","9","rating","canvas-keyboard-response","71","165623","0.0-11.0-0.30","112","2022-3-30","14:20:47","1","22","[""White""]","No","Female","716239","","","","","","","","120","30","30","17","33","1",""
"null","null","clear_screen","canvas-keyboard-response","72","165884","0.0-11.0-1.30","112","2022-3-30","14:20:47","1","22","[""White""]","No","Female","716239","","","","","","","","120","30","30","17","33","",""
"2031","3","rating","canvas-keyboard-response","73","167927","0.0-11.0-0.31","112","2022-3-30","14:20:47","1","22","[""White""]","No","Female","716239","","","","","","","","300","113","140","40","40","0",""
"null","null","clear_screen","canvas-keyboard-response","74","168186","0.0-11.0-1.31","112","2022-3-30","14:20:47","1","22","[""White""]","No","Female","716239","","","","","","","","300","113","140","40","40","",""
"1594","7","rating","canvas-keyboard-response","75","169791","0.0-11.0-0.32","112","2022-3-30","14:20:47","1","22","[""White""]","No","Female","716239","","","","","","","","12","30","85","10","25","1",""
"null","null","clear_screen","canvas-keyboard-response","76","170050","0.0-11.0-1.32","112","2022-3-30","14:20:47","1","22","[""White""]","No","Female","716239","","","","","","","","12","30","85","10","25","",""
"2185","1","rating","canvas-keyboard-response","77","172246","0.0-11.0-0.33","112","2022-3-30","14:20:47","1","22","[""White""]","No","Female","716239","","","","","","","","251","140","30","25","40","1",""
"null","null","clear_screen","canvas-keyboard-response","78","172509","0.0-11.0-1.33","112","2022-3-30","14:20:47","1","22","[""White""]","No","Female","716239","","","","","","","","251","140","30","25","40","",""
"1277","9","rating","canvas-keyboard-response","79","173799","0.0-11.0-0.34","112","2022-3-30","14:20:47","1","22","[""White""]","No","Female","716239","","","","","","","","5","30","30","10","17","1",""
"null","null","clear_screen","canvas-keyboard-response","80","174059","0.0-11.0-1.34","112","2022-3-30","14:20:47","1","22","[""White""]","No","Female","716239","","","","","","","","5","30","30","10","17","",""
"1713","2","rating","canvas-keyboard-response","81","175782","0.0-11.0-0.35","112","2022-3-30","14:20:47","1","22","[""White""]","No","Female","716239","","","","","","","","101","140","30","10","33","0",""
"null","null","clear_screen","canvas-keyboard-response","82","176043","0.0-11.0-1.35","112","2022-3-30","14:20:47","1","22","[""White""]","No","Female","716239","","","","","","","","101","140","30","10","33","",""
"5412","4","rating","canvas-keyboard-response","83","181470","0.0-11.0-0.36","112","2022-3-30","14:20:47","1","22","[""White""]","No","Female","716239","","","","","","","","158","85","113","17","33","0",""
"null","null","clear_screen","canvas-keyboard-response","84","181731","0.0-11.0-1.36","112","2022-3-30","14:20:47","1","22","[""White""]","No","Female","716239","","","","","","","","158","85","113","17","33","",""
"1213","3","rating","canvas-keyboard-response","85","182958","0.0-11.0-0.37","112","2022-3-30","14:20:47","1","22","[""White""]","No","Female","716239","","","","","","","","267","57","140","33","33","0",""
"null","null","clear_screen","canvas-keyboard-response","86","183219","0.0-11.0-1.37","112","2022-3-30","14:20:47","1","22","[""White""]","No","Female","716239","","","","","","","","267","57","140","33","33","",""
"2300","7","rating","canvas-keyboard-response","87","185534","0.0-11.0-0.38","112","2022-3-30","14:20:47","1","22","[""White""]","No","Female","716239","","","","","","","","260","30","30","33","40","0",""
"null","null","clear_screen","canvas-keyboard-response","88","185794","0.0-11.0-1.38","112","2022-3-30","14:20:47","1","22","[""White""]","No","Female","716239","","","","","","","","260","30","30","33","40","",""
"1896","2","rating","canvas-keyboard-response","89","187703","0.0-11.0-0.39","112","2022-3-30","14:20:47","1","22","[""White""]","No","Female","716239","","","","","","","","19","30","140","10","33","1",""
"null","null","clear_screen","canvas-keyboard-response","90","187963","0.0-11.0-1.39","112","2022-3-30","14:20:47","1","22","[""White""]","No","Female","716239","","","","","","","","19","30","140","10","33","",""
"6831","4","rating","canvas-keyboard-response","91","194804","0.0-11.0-0.40","112","2022-3-30","14:20:47","1","22","[""White""]","No","Female","716239","","","","","","","","271","57","113","33","40","0",""
"null","null","clear_screen","canvas-keyboard-response","92","195059","0.0-11.0-1.40","112","2022-3-30","14:20:47","1","22","[""White""]","No","Female","716239","","","","","","","","271","57","113","33","40","",""
"1600","6","rating","canvas-keyboard-response","93","196670","0.0-11.0-0.41","112","2022-3-30","14:20:47","1","22","[""White""]","No","Female","716239","","","","","","","","52","85","85","10","17","0",""
"null","null","clear_screen","canvas-keyboard-response","94","196928","0.0-11.0-1.41","112","2022-3-30","14:20:47","1","22","[""White""]","No","Female","716239","","","","","","","","52","85","85","10","17","",""
"7051","4","rating","canvas-keyboard-response","95","203991","0.0-11.0-0.42","112","2022-3-30","14:20:47","1","22","[""White""]","No","Female","716239","","","","","","","","292","30","85","40","40","1",""
"null","null","clear_screen","canvas-keyboard-response","96","204249","0.0-11.0-1.42","112","2022-3-30","14:20:47","1","22","[""White""]","No","Female","716239","","","","","","","","292","30","85","40","40","",""
"1096","4","rating","canvas-keyboard-response","97","205359","0.0-11.0-0.43","112","2022-3-30","14:20:47","1","22","[""White""]","No","Female","716239","","","","","","","","49","85","140","10","10","0",""
"null","null","clear_screen","canvas-keyboard-response","98","205618","0.0-11.0-1.43","112","2022-3-30","14:20:47","1","22","[""White""]","No","Female","716239","","","","","","","","49","85","140","10","10","",""
"4297","5","rating","canvas-keyboard-response","99","209927","0.0-11.0-0.44","112","2022-3-30","14:20:47","1","22","[""White""]","No","Female","716239","","","","","","","","295","57","85","40","40","1",""
"null","null","clear_screen","canvas-keyboard-response","100","210184","0.0-11.0-1.44","112","2022-3-30","14:20:47","1","22","[""White""]","No","Female","716239","","","","","","","","295","57","85","40","40","",""
"1968","4","rating","canvas-keyboard-response","101","212165","0.0-11.0-0.45","112","2022-3-30","14:20:47","1","22","[""White""]","No","Female","716239","","","","","","","","141","57","113","17","33","0",""
"null","null","clear_screen","canvas-keyboard-response","102","212424","0.0-11.0-1.45","112","2022-3-30","14:20:47","1","22","[""White""]","No","Female","716239","","","","","","","","141","57","113","17","33","",""
"1827","2","rating","canvas-keyboard-response","103","214262","0.0-11.0-0.46","112","2022-3-30","14:20:47","1","22","[""White""]","No","Female","716239","","","","","","","","74","113","113","10","17","0",""
"null","null","clear_screen","canvas-keyboard-response","104","214523","0.0-11.0-1.46","112","2022-3-30","14:20:47","1","22","[""White""]","No","Female","716239","","","","","","","","74","113","113","10","17","",""
"1421","8","rating","canvas-keyboard-response","105","215959","0.0-11.0-0.47","112","2022-3-30","14:20:47","1","22","[""White""]","No","Female","716239","","","","","","","","1","30","57","10","10","0",""
"null","null","clear_screen","canvas-keyboard-response","106","216220","0.0-11.0-1.47","112","2022-3-30","14:20:47","1","22","[""White""]","No","Female","716239","","","","","","","","1","30","57","10","10","",""
"1147","1","rating","canvas-keyboard-response","107","217383","0.0-11.0-0.48","112","2022-3-30","14:20:47","1","22","[""White""]","No","Female","716239","","","","","","","","95","140","140","10","17","1",""
"1","2","clear_screen","canvas-keyboard-response","108","217392","0.0-11.0-1.48","112","2022-3-30","14:20:47","1","22","[""White""]","No","Female","716239","","","","","","","","95","140","140","10","17","",""
"1487","3","rating","canvas-keyboard-response","109","218886","0.0-11.0-0.49","112","2022-3-30","14:20:47","1","22","[""White""]","No","Female","716239","","","","","","","","42","57","140","10","33","0",""
"null","null","clear_screen","canvas-keyboard-response","110","219147","0.0-11.0-1.49","112","2022-3-30","14:20:47","1","22","[""White""]","No","Female","716239","","","","","","","","42","57","140","10","33","",""
"1378","3","rating","canvas-keyboard-response","111","220534","0.0-11.0-0.50","112","2022-3-30","14:20:47","1","22","[""White""]","No","Female","716239","","","","","","","","32","57","140","10","17","0",""
"null","null","clear_screen","canvas-keyboard-response","112","220795","0.0-11.0-1.50","112","2022-3-30","14:20:47","1","22","[""White""]","No","Female","716239","","","","","","","","32","57","140","10","17","",""
"1732","7","rating","canvas-keyboard-response","113","222543","0.0-11.0-0.51","112","2022-3-30","14:20:47","1","22","[""White""]","No","Female","716239","","","","","","","","138","57","30","17","33","0",""
"null","null","clear_screen","canvas-keyboard-response","114","222803","0.0-11.0-1.51","112","2022-3-30","14:20:47","1","22","[""White""]","No","Female","716239","","","","","","","","138","57","30","17","33","",""
"1638","6","rating","canvas-keyboard-response","115","224455","0.0-11.0-0.52","112","2022-3-30","14:20:47","1","22","[""White""]","No","Female","716239","","","","","","","","61","85","57","10","33","0",""
"null","null","clear_screen","canvas-keyboard-response","116","224717","0.0-11.0-1.52","112","2022-3-30","14:20:47","1","22","[""White""]","No","Female","716239","","","","","","","","61","85","57","10","33","",""
"1303","4","rating","canvas-keyboard-response","117","226031","0.0-11.0-0.53","112","2022-3-30","14:20:47","1","22","[""White""]","No","Female","716239","","","","","","","","183","140","85","17","25","1",""
"null","null","clear_screen","canvas-keyboard-response","118","226292","0.0-11.0-1.53","112","2022-3-30","14:20:47","1","22","[""White""]","No","Female","716239","","","","","","","","183","140","85","17","25","",""
"1064","3","rating","canvas-keyboard-response","119","227367","0.0-11.0-0.54","112","2022-3-30","14:20:47","1","22","[""White""]","No","Female","716239","","","","","","","","272","57","140","33","40","0",""
"null","null","clear_screen","canvas-keyboard-response","120","227626","0.0-11.0-1.54","112","2022-3-30","14:20:47","1","22","[""White""]","No","Female","716239","","","","","","","","272","57","140","33","40","",""
"2087","3","rating","canvas-keyboard-response","121","229726","0.0-11.0-0.55","112","2022-3-30","14:20:47","1","22","[""White""]","No","Female","716239","","","","","","","","236","113","30","25","33","0",""
"null","null","clear_screen","canvas-keyboard-response","122","229986","0.0-11.0-1.55","112","2022-3-30","14:20:47","1","22","[""White""]","No","Female","716239","","","","","","","","236","113","30","25","33","",""
"2712","3","rating","canvas-keyboard-response","123","232711","0.0-11.0-0.56","112","2022-3-30","14:20:47","1","22","[""White""]","No","Female","716239","","","","","","","","137","57","140","17","25","1",""
"null","null","clear_screen","canvas-keyboard-response","124","232971","0.0-11.0-1.56","112","2022-3-30","14:20:47","1","22","[""White""]","No","Female","716239","","","","","","","","137","57","140","17","25","",""
"1425","1","rating","canvas-keyboard-response","125","234406","0.0-11.0-0.57","112","2022-3-30","14:20:47","1","22","[""White""]","No","Female","716239","","","","","","","","105","140","140","10","33","0",""
"null","null","clear_screen","canvas-keyboard-response","126","234667","0.0-11.0-1.57","112","2022-3-30","14:20:47","1","22","[""White""]","No","Female","716239","","","","","","","","105","140","140","10","33","",""
"3237","6","rating","canvas-keyboard-response","127","237918","0.0-11.0-0.58","112","2022-3-30","14:20:47","1","22","[""White""]","No","Female","716239","","","","","","","","17","30","85","10","33","0",""
"null","null","clear_screen","canvas-keyboard-response","128","238182","0.0-11.0-1.58","112","2022-3-30","14:20:47","1","22","[""White""]","No","Female","716239","","","","","","","","17","30","85","10","33","",""
"1234","6","rating","canvas-keyboard-response","129","239431","0.0-11.0-0.59","112","2022-3-30","14:20:47","1","22","[""White""]","No","Female","716239","","","","","","","","218","57","30","25","40","0",""
"null","null","clear_screen","canvas-keyboard-response","130","239692","0.0-11.0-1.59","112","2022-3-30","14:20:47","1","22","[""White""]","No","Female","716239","","","","","","","","218","57","30","25","40","",""
"2445","7","rating","canvas-keyboard-response","131","242150","0.0-11.0-0.60","112","2022-3-30","14:20:47","1","22","[""White""]","No","Female","716239","","","","","","","","60","85","30","10","33","0",""
"null","null","clear_screen","canvas-keyboard-response","132","242408","0.0-11.0-1.60","112","2022-3-30","14:20:47","1","22","[""White""]","No","Female","716239","","","","","","","","60","85","30","10","33","",""
"1528","8","rating","canvas-keyboard-response","133","243950","0.0-11.0-0.61","112","2022-3-30","14:20:47","1","22","[""White""]","No","Female","716239","","","","","","","","134","57","57","17","25","1",""
"null","null","clear_screen","canvas-keyboard-response","134","244211","0.0-11.0-1.61","112","2022-3-30","14:20:47","1","22","[""White""]","No","Female","716239","","","","","","","","134","57","57","17","25","",""
"976","7","rating","canvas-keyboard-response","135","245198","0.0-11.0-0.62","112","2022-3-30","14:20:47","1","22","[""White""]","No","Female","716239","","","","","","","","22","30","85","10","40","0",""
"null","null","clear_screen","canvas-keyboard-response","136","245456","0.0-11.0-1.62","112","2022-3-30","14:20:47","1","22","[""White""]","No","Female","716239","","","","","","","","22","30","85","10","40","",""
"1667","4","rating","canvas-keyboard-response","137","247134","0.0-11.0-0.63","112","2022-3-30","14:20:47","1","22","[""White""]","No","Female","716239","","","","","","","","165","113","140","17","17","1",""
"null","null","clear_screen","canvas-keyboard-response","138","247393","0.0-11.0-1.63","112","2022-3-30","14:20:47","1","22","[""White""]","No","Female","716239","","","","","","","","165","113","140","17","17","",""
"1523","4","rating","canvas-keyboard-response","139","248926","0.0-11.0-0.64","112","2022-3-30","14:20:47","1","22","[""White""]","No","Female","716239","","","","","","","","48","85","113","10","10","0",""
"null","null","clear_screen","canvas-keyboard-response","140","249185","0.0-11.0-1.64","112","2022-3-30","14:20:47","1","22","[""White""]","No","Female","716239","","","","","","","","48","85","113","10","10","",""
"1703","4","rating","canvas-keyboard-response","141","250903","0.0-11.0-0.65","112","2022-3-30","14:20:47","1","22","[""White""]","No","Female","716239","","","","","","","","119","30","140","17","25","0",""
"null","null","clear_screen","canvas-keyboard-response","142","251165","0.0-11.0-1.65","112","2022-3-30","14:20:47","1","22","[""White""]","No","Female","716239","","","","","","","","119","30","140","17","25","",""
"782","3","rating","canvas-keyboard-response","143","251958","0.0-11.0-0.66","112","2022-3-30","14:20:47","1","22","[""White""]","No","Female","716239","","","","","","","","211","57","113","25","25","1",""
"null","null","clear_screen","canvas-keyboard-response","144","252217","0.0-11.0-1.66","112","2022-3-30","14:20:47","1","22","[""White""]","No","Female","716239","","","","","","","","211","57","113","25","25","",""
"723","4","rating","canvas-keyboard-response","145","252951","0.0-11.0-0.67","112","2022-3-30","14:20:47","1","22","[""White""]","No","Female","716239","","","","","","","","77","113","57","10","25","1",""
"null","null","clear_screen","canvas-keyboard-response","146","253211","0.0-11.0-1.67","112","2022-3-30","14:20:47","1","22","[""White""]","No","Female","716239","","","","","","","","77","113","57","10","25","",""
"798","4","rating","canvas-keyboard-response","147","254023","0.0-11.0-0.68","112","2022-3-30","14:20:47","1","22","[""White""]","No","Female","716239","","","","","","","","64","85","140","10","33","0",""
"null","null","clear_screen","canvas-keyboard-response","148","254284","0.0-11.0-1.68","112","2022-3-30","14:20:47","1","22","[""White""]","No","Female","716239","","","","","","","","64","85","140","10","33","",""
"1037","3","rating","canvas-keyboard-response","149","255334","0.0-11.0-0.69","112","2022-3-30","14:20:47","1","22","[""White""]","No","Female","716239","","","","","","","","94","140","113","10","17","1",""
"null","null","clear_screen","canvas-keyboard-response","150","255595","0.0-11.0-1.69","112","2022-3-30","14:20:47","1","22","[""White""]","No","Female","716239","","","","","","","","94","140","113","10","17","",""
"2030","4","rating","canvas-keyboard-response","151","257638","0.0-11.0-0.70","112","2022-3-30","14:20:47","1","22","[""White""]","No","Female","716239","","","","","","","","202","30","85","25","33","0",""
"null","null","clear_screen","canvas-keyboard-response","152","257899","0.0-11.0-1.70","112","2022-3-30","14:20:47","1","22","[""White""]","No","Female","716239","","","","","","","","202","30","85","25","33","",""
"1665","4","rating","canvas-keyboard-response","153","259574","0.0-11.0-0.71","112","2022-3-30","14:20:47","1","22","[""White""]","No","Female","716239","","","","","","","","81","113","30","10","33","0",""
"null","null","clear_screen","canvas-keyboard-response","154","259835","0.0-11.0-1.71","112","2022-3-30","14:20:47","1","22","[""White""]","No","Female","716239","","","","","","","","81","113","30","10","33","",""
"2669","5","rating","canvas-keyboard-response","155","262518","0.0-11.0-0.72","112","2022-3-30","14:20:47","1","22","[""White""]","No","Female","716239","","","","","","","","118","30","113","17","25","0",""
"null","null","clear_screen","canvas-keyboard-response","156","262779","0.0-11.0-1.72","112","2022-3-30","14:20:47","1","22","[""White""]","No","Female","716239","","","","","","","","118","30","113","17","25","",""
"1449","6","rating","canvas-keyboard-response","157","264238","0.0-11.0-0.73","112","2022-3-30","14:20:47","1","22","[""White""]","No","Female","716239","","","","","","","","44","57","57","10","40","1",""
"null","null","clear_screen","canvas-keyboard-response","158","264496","0.0-11.0-1.73","112","2022-3-30","14:20:47","1","22","[""White""]","No","Female","716239","","","","","","","","44","57","57","10","40","",""
"866","7","rating","canvas-keyboard-response","159","265375","0.0-11.0-0.74","112","2022-3-30","14:20:47","1","22","[""White""]","No","Female","716239","","","","","","","","47","57","140","10","40","1",""
"null","null","clear_screen","canvas-keyboard-response","160","265633","0.0-11.0-1.74","112","2022-3-30","14:20:47","1","22","[""White""]","No","Female","716239","","","","","","","","47","57","140","10","40","",""
"920","6","rating","canvas-keyboard-response","161","266567","0.0-11.0-0.75","112","2022-3-30","14:20:47","1","22","[""White""]","No","Female","716239","","","","","","","","76","113","30","10","25","0",""
"null","null","clear_screen","canvas-keyboard-response","162","266827","0.0-11.0-1.75","112","2022-3-30","14:20:47","1","22","[""White""]","No","Female","716239","","","","","","","","76","113","30","10","25","",""
"1686","8","rating","canvas-keyboard-response","163","268528","0.0-11.0-0.76","112","2022-3-30","14:20:47","1","22","[""White""]","No","Female","716239","","","","","","","","133","57","30","17","25","0",""
"null","null","clear_screen","canvas-keyboard-response","164","268786","0.0-11.0-1.76","112","2022-3-30","14:20:47","1","22","[""White""]","No","Female","716239","","","","","","","","133","57","30","17","25","",""
"1778","8","rating","canvas-keyboard-response","165","270574","0.0-11.0-0.77","112","2022-3-30","14:20:47","1","22","[""White""]","No","Female","716239","","","","","","","","26","57","113","10","10","1",""
"null","null","clear_screen","canvas-keyboard-response","166","270834","0.0-11.0-1.77","112","2022-3-30","14:20:47","1","22","[""White""]","No","Female","716239","","","","","","","","26","57","113","10","10","",""
"2039","4","rating","canvas-keyboard-response","167","272886","0.0-11.0-0.78","112","2022-3-30","14:20:47","1","22","[""White""]","No","Female","716239","","","","","","","","164","85","140","17","40","0",""
"null","null","clear_screen","canvas-keyboard-response","168","273144","0.0-11.0-1.78","112","2022-3-30","14:20:47","1","22","[""White""]","No","Female","716239","","","","","","","","164","85","140","17","40","",""
"1047","5","rating","canvas-keyboard-response","169","274206","0.0-11.0-0.79","112","2022-3-30","14:20:47","1","22","[""White""]","No","Female","716239","","","","","","","","69","85","140","10","40","1",""
"null","null","clear_screen","canvas-keyboard-response","170","274467","0.0-11.0-1.79","112","2022-3-30","14:20:47","1","22","[""White""]","No","Female","716239","","","","","","","","69","85","140","10","40","",""
"1225","5","rating","canvas-keyboard-response","171","275702","0.0-11.0-0.80","112","2022-3-30","14:20:47","1","22","[""White""]","No","Female","716239","","","","","","","","157","85","85","17","33","0",""
"null","null","clear_screen","canvas-keyboard-response","172","275961","0.0-11.0-1.80","112","2022-3-30","14:20:47","1","22","[""White""]","No","Female","716239","","","","","","","","157","85","85","17","33","",""
"1307","6","rating","canvas-keyboard-response","173","277278","0.0-11.0-0.81","112","2022-3-30","14:20:47","1","22","[""White""]","No","Female","716239","","","","","","","","161","85","57","17","40","1",""
"null","null","clear_screen","canvas-keyboard-response","174","277536","0.0-11.0-1.81","112","2022-3-30","14:20:47","1","22","[""White""]","No","Female","716239","","","","","","","","161","85","57","17","40","",""
"1481","1","rating","canvas-keyboard-response","175","279030","0.0-11.0-0.82","112","2022-3-30","14:20:47","1","22","[""White""]","No","Female","716239","","","","","","","","185","140","140","17","25","1",""
"null","null","clear_screen","canvas-keyboard-response","176","279291","0.0-11.0-1.82","112","2022-3-30","14:20:47","1","22","[""White""]","No","Female","716239","","","","","","","","185","140","140","17","25","",""
"1821","6","rating","canvas-keyboard-response","177","281126","0.0-11.0-0.83","112","2022-3-30","14:20:47","1","22","[""White""]","No","Female","716239","","","","","","","","270","57","85","33","40","0",""
"null","null","clear_screen","canvas-keyboard-response","178","281387","0.0-11.0-1.83","112","2022-3-30","14:20:47","1","22","[""White""]","No","Female","716239","","","","","","","","270","57","85","33","40","",""
"1498","6","rating","canvas-keyboard-response","179","282894","0.0-11.0-0.84","112","2022-3-30","14:20:47","1","22","[""White""]","No","Female","716239","","","","","","","","213","57","30","25","33","0",""
"null","null","clear_screen","canvas-keyboard-response","180","283153","0.0-11.0-1.84","112","2022-3-30","14:20:47","1","22","[""White""]","No","Female","716239","","","","","","","","213","57","30","25","33","",""
"1406","6","rating","canvas-keyboard-response","181","284575","0.0-11.0-0.85","112","2022-3-30","14:20:47","1","22","[""White""]","No","Female","716239","","","","","","","","227","85","85","25","33","0",""
"null","null","clear_screen","canvas-keyboard-response","182","284835","0.0-11.0-1.85","112","2022-3-30","14:20:47","1","22","[""White""]","No","Female","716239","","","","","","","","227","85","85","25","33","",""
"1649","3","rating","canvas-keyboard-response","183","286494","0.0-11.0-0.86","112","2022-3-30","14:20:47","1","22","[""White""]","No","Female","716239","","","","","","","","279","85","140","33","40","1",""
"null","null","clear_screen","canvas-keyboard-response","184","286755","0.0-11.0-1.86","112","2022-3-30","14:20:47","1","22","[""White""]","No","Female","716239","","","","","","","","279","85","140","33","40","",""
"2272","4","rating","canvas-keyboard-response","185","289038","0.0-11.0-0.87","112","2022-3-30","14:20:47","1","22","[""White""]","No","Female","716239","","","","","","","","156","85","57","17","33","0",""
"null","null","clear_screen","canvas-keyboard-response","186","289298","0.0-11.0-1.87","112","2022-3-30","14:20:47","1","22","[""White""]","No","Female","716239","","","","","","","","156","85","57","17","33","",""
"1434","3","rating","canvas-keyboard-response","187","290743","0.0-11.0-0.88","112","2022-3-30","14:20:47","1","22","[""White""]","No","Female","716239","","","","","","","","109","140","113","10","40","0",""
"null","null","clear_screen","canvas-keyboard-response","188","291001","0.0-11.0-1.88","112","2022-3-30","14:20:47","1","22","[""White""]","No","Female","716239","","","","","","","","109","140","113","10","40","",""
"2048","4","rating","canvas-keyboard-response","189","293063","0.0-11.0-0.89","112","2022-3-30","14:20:47","1","22","[""White""]","No","Female","716239","","","","","","","","88","113","85","10","40","1",""
"null","null","clear_screen","canvas-keyboard-response","190","293325","0.0-11.0-1.89","112","2022-3-30","14:20:47","1","22","[""White""]","No","Female","716239","","","","","","","","88","113","85","10","40","",""
"1551","9","rating","canvas-keyboard-response","191","294888","0.0-11.0-0.90","112","2022-3-30","14:20:47","1","22","[""White""]","No","Female","716239","","","","","","","","115","30","30","17","25","1",""
"null","null","clear_screen","canvas-keyboard-response","192","295150","0.0-11.0-1.90","112","2022-3-30","14:20:47","1","22","[""White""]","No","Female","716239","","","","","","","","115","30","30","17","25","",""
"3554","6","rating","canvas-keyboard-response","193","298718","0.0-11.0-0.91","112","2022-3-30","14:20:47","1","22","[""White""]","No","Female","716239","","","","","","","","152","85","85","17","25","1",""
"null","null","clear_screen","canvas-keyboard-response","194","298980","0.0-11.0-1.91","112","2022-3-30","14:20:47","1","22","[""White""]","No","Female","716239","","","","","","","","152","85","85","17","25","",""
"2348","5","rating","canvas-keyboard-response","195","301342","0.0-11.0-0.92","112","2022-3-30","14:20:47","1","22","[""White""]","No","Female","716239","","","","","","","","263","30","113","33","40","1",""
"null","null","clear_screen","canvas-keyboard-response","196","301601","0.0-11.0-1.92","112","2022-3-30","14:20:47","1","22","[""White""]","No","Female","716239","","","","","","","","263","30","113","33","40","",""
"1954","2","rating","canvas-keyboard-response","197","303567","0.0-11.0-0.93","112","2022-3-30","14:20:47","1","22","[""White""]","No","Female","716239","","","","","","","","9","30","140","10","17","0",""
"null","null","clear_screen","canvas-keyboard-response","198","303826","0.0-11.0-1.93","112","2022-3-30","14:20:47","1","22","[""White""]","No","Female","716239","","","","","","","","9","30","140","10","17","",""
"2502","1","rating","canvas-keyboard-response","199","306343","0.0-11.0-0.94","112","2022-3-30","14:20:47","1","22","[""White""]","No","Female","716239","","","","","","","","284","113","113","33","40","0",""
"null","null","clear_screen","canvas-keyboard-response","200","306603","0.0-11.0-1.94","112","2022-3-30","14:20:47","1","22","[""White""]","No","Female","716239","","","","","","","","284","113","113","33","40","",""
"1603","8","rating","canvas-keyboard-response","201","308223","0.0-11.0-0.95","112","2022-3-30","14:20:47","1","22","[""White""]","No","Female","716239","","","","","","","","139","57","57","17","33","1",""
"null","null","clear_screen","canvas-keyboard-response","202","308484","0.0-11.0-1.95","112","2022-3-30","14:20:47","1","22","[""White""]","No","Female","716239","","","","","","","","139","57","57","17","33","",""
"1615","6","rating","canvas-keyboard-response","203","310110","0.0-11.0-0.96","112","2022-3-30","14:20:47","1","22","[""White""]","No","Female","716239","","","","","","","","89","113","113","10","40","1",""
"null","null","clear_screen","canvas-keyboard-response","204","310371","0.0-11.0-1.96","112","2022-3-30","14:20:47","1","22","[""White""]","No","Female","716239","","","","","","","","89","113","113","10","40","",""
"4936","6","rating","canvas-keyboard-response","205","315318","0.0-11.0-0.97","112","2022-3-30","14:20:47","1","22","[""White""]","No","Female","716239","","","","","","","","203","30","113","25","33","0",""
"null","null","clear_screen","canvas-keyboard-response","206","315581","0.0-11.0-1.97","112","2022-3-30","14:20:47","1","22","[""White""]","No","Female","716239","","","","","","","","203","30","113","25","33","",""
"1510","2","rating","canvas-keyboard-response","207","317102","0.0-11.0-0.98","112","2022-3-30","14:20:47","1","22","[""White""]","No","Female","716239","","","","","","","","264","30","140","33","40","1",""
"null","null","clear_screen","canvas-keyboard-response","208","317361","0.0-11.0-1.98","112","2022-3-30","14:20:47","1","22","[""White""]","No","Female","716239","","","","","","","","264","30","140","33","40","",""
"6201","6","rating","canvas-keyboard-response","209","323574","0.0-11.0-0.99","112","2022-3-30","14:20:47","1","22","[""White""]","No","Female","716239","","","","","","","","127","30","85","17","40","1",""
"null","null","clear_screen","canvas-keyboard-response","210","323832","0.0-11.0-1.99","112","2022-3-30","14:20:47","1","22","[""White""]","No","Female","716239","","","","","","","","127","30","85","17","40","",""
"1745","5","rating","canvas-keyboard-response","211","325583","0.0-11.0-0.100","112","2022-3-30","14:20:47","1","22","[""White""]","No","Female","716239","","","","","","","","223","85","113","25","25","0",""
"null","null","clear_screen","canvas-keyboard-response","212","325841","0.0-11.0-1.100","112","2022-3-30","14:20:47","1","22","[""White""]","No","Female","716239","","","","","","","","223","85","113","25","25","",""
"1863","4","rating","canvas-keyboard-response","213","327710","0.0-11.0-0.101","112","2022-3-30","14:20:47","1","22","[""White""]","No","Female","716239","","","","","","","","90","113","140","10","40","1",""
"null","null","clear_screen","canvas-keyboard-response","214","327968","0.0-11.0-1.101","112","2022-3-30","14:20:47","1","22","[""White""]","No","Female","716239","","","","","","","","90","113","140","10","40","",""
"1664","1","rating","canvas-keyboard-response","215","329646","0.0-11.0-0.102","112","2022-3-30","14:20:47","1","22","[""White""]","No","Female","716239","","","","","","","","250","140","140","25","33","1",""
"null","null","clear_screen","canvas-keyboard-response","216","329907","0.0-11.0-1.102","112","2022-3-30","14:20:47","1","22","[""White""]","No","Female","716239","","","","","","","","250","140","140","25","33","",""
"986","1","rating","canvas-keyboard-response","217","330902","0.0-11.0-0.103","112","2022-3-30","14:20:47","1","22","[""White""]","No","Female","716239","","","","","","","","110","140","140","10","40","0",""
"null","null","clear_screen","canvas-keyboard-response","218","331161","0.0-11.0-1.103","112","2022-3-30","14:20:47","1","22","[""White""]","No","Female","716239","","","","","","","","110","140","140","10","40","",""
"1238","9","rating","canvas-keyboard-response","219","332414","0.0-11.0-0.104","112","2022-3-30","14:20:47","1","22","[""White""]","No","Female","716239","","","","","","","","15","30","30","10","33","1",""
"null","null","clear_screen","canvas-keyboard-response","220","332674","0.0-11.0-1.104","112","2022-3-30","14:20:47","1","22","[""White""]","No","Female","716239","","","","","","","","15","30","30","10","33","",""
"4117","3","rating","canvas-keyboard-response","221","336806","0.0-11.0-0.105","112","2022-3-30","14:20:47","1","22","[""White""]","No","Female","716239","","","","","","","","80","113","140","10","25","0",""
"null","null","clear_screen","canvas-keyboard-response","222","337067","0.0-11.0-1.105","112","2022-3-30","14:20:47","1","22","[""White""]","No","Female","716239","","","","","","","","80","113","140","10","25","",""
"1365","8","rating","canvas-keyboard-response","223","338446","0.0-11.0-0.106","112","2022-3-30","14:20:47","1","22","[""White""]","No","Female","716239","","","","","","","","38","57","30","10","33","0",""
"null","null","clear_screen","canvas-keyboard-response","224","338705","0.0-11.0-1.106","112","2022-3-30","14:20:47","1","22","[""White""]","No","Female","716239","","","","","","","","38","57","30","10","33","",""
"1698","4","rating","canvas-keyboard-response","225","340414","0.0-11.0-0.107","112","2022-3-30","14:20:47","1","22","[""White""]","No","Female","716239","","","","","","","","24","30","140","10","40","1",""
"null","null","clear_screen","canvas-keyboard-response","226","340673","0.0-11.0-1.107","112","2022-3-30","14:20:47","1","22","[""White""]","No","Female","716239","","","","","","","","24","30","140","10","40","",""
"1359","1","rating","canvas-keyboard-response","227","342048","0.0-11.0-0.108","112","2022-3-30","14:20:47","1","22","[""White""]","No","Female","716239","","","","","","","","100","140","140","10","25","0",""
"null","null","clear_screen","canvas-keyboard-response","228","342308","0.0-11.0-1.108","112","2022-3-30","14:20:47","1","22","[""White""]","No","Female","716239","","","","","","","","100","140","140","10","25","",""
"1070","2","rating","canvas-keyboard-response","229","343390","0.0-11.0-0.109","112","2022-3-30","14:20:47","1","22","[""White""]","No","Female","716239","","","","","","","","278","85","113","33","40","1",""
"null","null","clear_screen","canvas-keyboard-response","230","343650","0.0-11.0-1.109","112","2022-3-30","14:20:47","1","22","[""White""]","No","Female","716239","","","","","","","","278","85","113","33","40","",""
"1106","3","rating","canvas-keyboard-response","231","344767","0.0-11.0-0.110","112","2022-3-30","14:20:47","1","22","[""White""]","No","Female","716239","","","","","","","","84","113","113","10","33","0",""
"null","null","clear_screen","canvas-keyboard-response","232","345030","0.0-11.0-1.110","112","2022-3-30","14:20:47","1","22","[""White""]","No","Female","716239","","","","","","","","84","113","113","10","33","",""
"1292","3","rating","canvas-keyboard-response","233","346335","0.0-11.0-0.111","112","2022-3-30","14:20:47","1","22","[""White""]","No","Female","716239","","","","","","","","298","85","113","40","40","0",""
"null","null","clear_screen","canvas-keyboard-response","234","346593","0.0-11.0-1.111","112","2022-3-30","14:20:47","1","22","[""White""]","No","Female","716239","","","","","","","","298","85","113","40","40","",""
"2321","7","rating","canvas-keyboard-response","235","348927","0.0-11.0-0.112","112","2022-3-30","14:20:47","1","22","[""White""]","No","Female","716239","","","","","","","","261","30","57","33","40","1",""
"null","null","clear_screen","canvas-keyboard-response","236","349185","0.0-11.0-1.112","112","2022-3-30","14:20:47","1","22","[""White""]","No","Female","716239","","","","","","","","261","30","57","33","40","",""
"1521","4","rating","canvas-keyboard-response","237","350719","0.0-11.0-0.113","112","2022-3-30","14:20:47","1","22","[""White""]","No","Female","716239","","","","","","","","190","140","140","17","33","0",""
"null","null","clear_screen","canvas-keyboard-response","238","350978","0.0-11.0-1.113","112","2022-3-30","14:20:47","1","22","[""White""]","No","Female","716239","","","","","","","","190","140","140","17","33","",""
"2047","6","rating","canvas-keyboard-response","239","353038","0.0-11.0-0.114","112","2022-3-30","14:20:47","1","22","[""White""]","No","Female","716239","","","","","","","","225","85","30","25","33","0",""
"null","null","clear_screen","canvas-keyboard-response","240","353297","0.0-11.0-1.114","112","2022-3-30","14:20:47","1","22","[""White""]","No","Female","716239","","","","","","","","225","85","30","25","33","",""
"1499","7","rating","canvas-keyboard-response","241","354806","0.0-11.0-0.115","112","2022-3-30","14:20:47","1","22","[""White""]","No","Female","716239","","","","","","","","55","85","30","10","25","0",""
"null","null","clear_screen","canvas-keyboard-response","242","355067","0.0-11.0-1.115","112","2022-3-30","14:20:47","1","22","[""White""]","No","Female","716239","","","","","","","","55","85","30","10","25","",""
"1368","4","rating","canvas-keyboard-response","243","356447","0.0-11.0-0.116","112","2022-3-30","14:20:47","1","22","[""White""]","No","Female","716239","","","","","","","","193","140","85","17","40","0",""
"null","null","clear_screen","canvas-keyboard-response","244","356707","0.0-11.0-1.116","112","2022-3-30","14:20:47","1","22","[""White""]","No","Female","716239","","","","","","","","193","140","85","17","40","",""
"2462","8","rating","canvas-keyboard-response","245","359182","0.0-11.0-0.117","112","2022-3-30","14:20:47","1","22","[""White""]","No","Female","716239","","","","","","","","231","85","57","25","40","1",""
"null","null","clear_screen","canvas-keyboard-response","246","359444","0.0-11.0-1.117","112","2022-3-30","14:20:47","1","22","[""White""]","No","Female","716239","","","","","","","","231","85","57","25","40","",""
"1278","7","rating","canvas-keyboard-response","247","360735","0.0-11.0-0.118","112","2022-3-30","14:20:47","1","22","[""White""]","No","Female","716239","","","","","","","","233","85","113","25","40","1",""
"null","null","clear_screen","canvas-keyboard-response","248","360993","0.0-11.0-1.118","112","2022-3-30","14:20:47","1","22","[""White""]","No","Female","716239","","","","","","","","233","85","113","25","40","",""
"1255","8","rating","canvas-keyboard-response","249","362262","0.0-11.0-0.119","112","2022-3-30","14:20:47","1","22","[""White""]","No","Female","716239","","","","","","","","83","113","85","10","33","1",""
"null","null","clear_screen","canvas-keyboard-response","250","362523","0.0-11.0-1.119","112","2022-3-30","14:20:47","1","22","[""White""]","No","Female","716239","","","","","","","","83","113","85","10","33","",""
"1390","7","rating","canvas-keyboard-response","251","363927","0.0-11.0-0.120","112","2022-3-30","14:20:47","1","22","[""White""]","No","Female","716239","","","","","","","","163","85","113","17","40","0",""
"null","null","clear_screen","canvas-keyboard-response","252","364186","0.0-11.0-1.120","112","2022-3-30","14:20:47","1","22","[""White""]","No","Female","716239","","","","","","","","163","85","113","17","40","",""
"1410","6","rating","canvas-keyboard-response","253","365606","0.0-11.0-0.121","112","2022-3-30","14:20:47","1","22","[""White""]","No","Female","716239","","","","","","","","189","140","113","17","33","0",""
"null","null","clear_screen","canvas-keyboard-response","254","365867","0.0-11.0-1.121","112","2022-3-30","14:20:47","1","22","[""White""]","No","Female","716239","","","","","","","","189","140","113","17","33","",""
"2061","5","rating","canvas-keyboard-response","255","367942","0.0-11.0-0.122","112","2022-3-30","14:20:47","1","22","[""White""]","No","Female","716239","","","","","","","","216","57","113","25","33","1",""
"null","null","clear_screen","canvas-keyboard-response","256","368203","0.0-11.0-1.122","112","2022-3-30","14:20:47","1","22","[""White""]","No","Female","716239","","","","","","","","216","57","113","25","33","",""
"731","5","rating","canvas-keyboard-response","257","368943","0.0-11.0-0.123","112","2022-3-30","14:20:47","1","22","[""White""]","No","Female","716239","","","","","","","","174","113","113","17","33","1",""
"null","null","clear_screen","canvas-keyboard-response","258","369200","0.0-11.0-1.123","112","2022-3-30","14:20:47","1","22","[""White""]","No","Female","716239","","","","","","","","174","113","113","17","33","",""
"1721","1","rating","canvas-keyboard-response","259","370934","0.0-11.0-0.124","112","2022-3-30","14:20:47","1","22","[""White""]","No","Female","716239","","","","","","","","4","30","140","10","10","0",""
"null","null","clear_screen","canvas-keyboard-response","260","371192","0.0-11.0-1.124","112","2022-3-30","14:20:47","1","22","[""White""]","No","Female","716239","","","","","","","","4","30","140","10","10","",""
"3946","7","rating","canvas-keyboard-response","261","375150","0.0-11.0-0.125","112","2022-3-30","14:20:47","1","22","[""White""]","No","Female","716239","","","","","","","","148","85","113","17","17","0",""
"null","null","clear_screen","canvas-keyboard-response","262","375408","0.0-11.0-1.125","112","2022-3-30","14:20:47","1","22","[""White""]","No","Female","716239","","","","","","","","148","85","113","17","17","",""
"1220","6","rating","canvas-keyboard-response","263","376638","0.0-11.0-0.126","112","2022-3-30","14:20:47","1","22","[""White""]","No","Female","716239","","","","","","","","71","113","30","10","17","0",""
"null","null","clear_screen","canvas-keyboard-response","264","376898","0.0-11.0-1.126","112","2022-3-30","14:20:47","1","22","[""White""]","No","Female","716239","","","","","","","","71","113","30","10","17","",""
"1465","7","rating","canvas-keyboard-response","265","378374","0.0-11.0-0.127","112","2022-3-30","14:20:47","1","22","[""White""]","No","Female","716239","","","","","","","","45","57","85","10","40","1",""
"null","null","clear_screen","canvas-keyboard-response","266","378634","0.0-11.0-1.127","112","2022-3-30","14:20:47","1","22","[""White""]","No","Female","716239","","","","","","","","45","57","85","10","40","",""
"1904","5","rating","canvas-keyboard-response","267","380551","0.0-11.0-0.128","112","2022-3-30","14:20:47","1","22","[""White""]","No","Female","716239","","","","","","","","244","113","113","25","40","1",""
"null","null","clear_screen","canvas-keyboard-response","268","380813","0.0-11.0-1.128","112","2022-3-30","14:20:47","1","22","[""White""]","No","Female","716239","","","","","","","","244","113","113","25","40","",""
"1708","1","rating","canvas-keyboard-response","269","382534","0.0-11.0-0.129","112","2022-3-30","14:20:47","1","22","[""White""]","No","Female","716239","","","","","","","","75","113","140","10","17","0",""
"null","null","clear_screen","canvas-keyboard-response","270","382797","0.0-11.0-1.129","112","2022-3-30","14:20:47","1","22","[""White""]","No","Female","716239","","","","","","","","75","113","140","10","17","",""
"4958","3","rating","canvas-keyboard-response","271","387767","0.0-11.0-0.130","112","2022-3-30","14:20:47","1","22","[""White""]","No","Female","716239","","","","","","","","103","140","85","10","33","1",""
"null","null","clear_screen","canvas-keyboard-response","272","388027","0.0-11.0-1.130","112","2022-3-30","14:20:47","1","22","[""White""]","No","Female","716239","","","","","","","","103","140","85","10","33","",""
"1265","2","rating","canvas-keyboard-response","273","389302","0.0-11.0-0.131","112","2022-3-30","14:20:47","1","22","[""White""]","No","Female","716239","","","","","","","","245","113","140","25","40","0",""
"null","null","clear_screen","canvas-keyboard-response","274","389561","0.0-11.0-1.131","112","2022-3-30","14:20:47","1","22","[""White""]","No","Female","716239","","","","","","","","245","113","140","25","40","",""
"1582","4","rating","canvas-keyboard-response","275","391158","0.0-11.0-0.132","112","2022-3-30","14:20:47","1","22","[""White""]","No","Female","716239","","","","","","","","171","113","30","17","33","1",""
"null","null","clear_screen","canvas-keyboard-response","276","391417","0.0-11.0-1.132","112","2022-3-30","14:20:47","1","22","[""White""]","No","Female","716239","","","","","","","","171","113","30","17","33","",""
"1277","3","rating","canvas-keyboard-response","277","392710","0.0-11.0-0.133","112","2022-3-30","14:20:47","1","22","[""White""]","No","Female","716239","","","","","","","","170","113","140","17","25","0",""
"null","null","clear_screen","canvas-keyboard-response","278","392972","0.0-11.0-1.133","112","2022-3-30","14:20:47","1","22","[""White""]","No","Female","716239","","","","","","","","170","113","140","17","25","",""
"1580","6","rating","canvas-keyboard-response","279","394566","0.0-11.0-0.134","112","2022-3-30","14:20:47","1","22","[""White""]","No","Female","716239","","","","","","","","166","113","30","17","25","1",""
"null","null","clear_screen","canvas-keyboard-response","280","394827","0.0-11.0-1.134","112","2022-3-30","14:20:47","1","22","[""White""]","No","Female","716239","","","","","","","","166","113","30","17","25","",""
"1950","6","rating","canvas-keyboard-response","281","396791","0.0-11.0-0.135","112","2022-3-30","14:20:47","1","22","[""White""]","No","Female","716239","","","","","","","","46","57","113","10","40","1",""
"null","null","clear_screen","canvas-keyboard-response","282","397051","0.0-11.0-1.135","112","2022-3-30","14:20:47","1","22","[""White""]","No","Female","716239","","","","","","","","46","57","113","10","40","",""
"1330","4","rating","canvas-keyboard-response","283","398391","0.0-11.0-0.136","112","2022-3-30","14:20:47","1","22","[""White""]","No","Female","716239","","","","","","","","93","140","85","10","17","0",""
"null","null","clear_screen","canvas-keyboard-response","284","398648","0.0-11.0-1.136","112","2022-3-30","14:20:47","1","22","[""White""]","No","Female","716239","","","","","","","","93","140","85","10","17","",""
"1465","7","rating","canvas-keyboard-response","285","400126","0.0-11.0-0.137","112","2022-3-30","14:20:47","1","22","[""White""]","No","Female","716239","","","","","","","","219","57","57","25","40","0",""
"null","null","clear_screen","canvas-keyboard-response","286","400387","0.0-11.0-1.137","112","2022-3-30","14:20:47","1","22","[""White""]","No","Female","716239","","","","","","","","219","57","57","25","40","",""
"1101","6","rating","canvas-keyboard-response","287","401503","0.0-11.0-0.138","112","2022-3-30","14:20:47","1","22","[""White""]","No","Female","716239","","","","","","","","146","57","113","17","40","1",""
"null","null","clear_screen","canvas-keyboard-response","288","401764","0.0-11.0-1.138","112","2022-3-30","14:20:47","1","22","[""White""]","No","Female","716239","","","","","","","","146","57","113","17","40","",""
"1325","6","rating","canvas-keyboard-response","289","403102","0.0-11.0-0.139","112","2022-3-30","14:20:47","1","22","[""White""]","No","Female","716239","","","","","","","","78","113","85","10","25","1",""
"null","null","clear_screen","canvas-keyboard-response","290","403363","0.0-11.0-1.139","112","2022-3-30","14:20:47","1","22","[""White""]","No","Female","716239","","","","","","","","78","113","85","10","25","",""
"1430","8","rating","canvas-keyboard-response","291","404806","0.0-11.0-0.140","112","2022-3-30","14:20:47","1","22","[""White""]","No","Female","716239","","","","","","","","34","57","57","10","25","1",""
"null","null","clear_screen","canvas-keyboard-response","292","405065","0.0-11.0-1.140","112","2022-3-30","14:20:47","1","22","[""White""]","No","Female","716239","","","","","","","","34","57","57","10","25","",""
"2614","5","rating","canvas-keyboard-response","293","407694","0.0-11.0-0.141","112","2022-3-30","14:20:47","1","22","[""White""]","No","Female","716239","","","","","","","","194","140","113","17","40","0",""
"null","null","clear_screen","canvas-keyboard-response","294","407954","0.0-11.0-1.141","112","2022-3-30","14:20:47","1","22","[""White""]","No","Female","716239","","","","","","","","194","140","113","17","40","",""
"1278","4","rating","canvas-keyboard-response","295","409245","0.0-11.0-0.142","112","2022-3-30","14:20:47","1","22","[""White""]","No","Female","716239","","","","","","","","229","85","140","25","33","0",""
"null","null","clear_screen","canvas-keyboard-response","296","409506","0.0-11.0-1.142","112","2022-3-30","14:20:47","1","22","[""White""]","No","Female","716239","","","","","","","","229","85","140","25","33","",""
"990","3","rating","canvas-keyboard-response","297","410510","0.0-11.0-0.143","112","2022-3-30","14:20:47","1","22","[""White""]","No","Female","716239","","","","","","","","248","140","85","25","33","1",""
"null","null","clear_screen","canvas-keyboard-response","298","410769","0.0-11.0-1.143","112","2022-3-30","14:20:47","1","22","[""White""]","No","Female","716239","","","","","","","","248","140","85","25","33","",""
"1194","4","rating","canvas-keyboard-response","299","411974","0.0-11.0-0.144","112","2022-3-30","14:20:47","1","22","[""White""]","No","Female","716239","","","","","","","","281","113","30","33","40","1",""
"70","4","clear_screen","canvas-keyboard-response","300","412054","0.0-11.0-1.144","112","2022-3-30","14:20:47","1","22","[""White""]","No","Female","716239","","","","","","","","281","113","30","33","40","",""
"1589","4","rating","canvas-keyboard-response","301","413654","0.0-11.0-0.145","112","2022-3-30","14:20:47","1","22","[""White""]","No","Female","716239","","","","","","","","241","113","30","25","40","0",""
"null","null","clear_screen","canvas-keyboard-response","302","413915","0.0-11.0-1.145","112","2022-3-30","14:20:47","1","22","[""White""]","No","Female","716239","","","","","","","","241","113","30","25","40","",""
"2094","9","rating","canvas-keyboard-response","303","416022","0.0-11.0-0.146","112","2022-3-30","14:20:47","1","22","[""White""]","No","Female","716239","","","","","","","","269","57","57","33","40","0",""
"null","null","clear_screen","canvas-keyboard-response","304","416281","0.0-11.0-1.146","112","2022-3-30","14:20:47","1","22","[""White""]","No","Female","716239","","","","","","","","269","57","57","33","40","",""
"2589","7","rating","canvas-keyboard-response","305","418886","0.0-11.0-0.147","112","2022-3-30","14:20:47","1","22","[""White""]","No","Female","716239","","","","","","","","242","113","57","25","40","1",""
"null","null","clear_screen","canvas-keyboard-response","306","419151","0.0-11.0-1.147","112","2022-3-30","14:20:47","1","22","[""White""]","No","Female","716239","","","","","","","","242","113","57","25","40","",""
"1325","1","rating","canvas-keyboard-response","307","420487","0.0-11.0-0.148","112","2022-3-30","14:20:47","1","22","[""White""]","No","Female","716239","","","","","","","","70","113","140","10","10","1",""
"null","null","clear_screen","canvas-keyboard-response","308","420746","0.0-11.0-1.148","112","2022-3-30","14:20:47","1","22","[""White""]","No","Female","716239","","","","","","","","70","113","140","10","10","",""
"1664","5","rating","canvas-keyboard-response","309","422423","0.0-11.0-0.149","112","2022-3-30","14:20:47","1","22","[""White""]","No","Female","716239","","","","","","","","113","30","113","17","17","1",""
"null","null","clear_screen","canvas-keyboard-response","310","422684","0.0-11.0-1.149","112","2022-3-30","14:20:47","1","22","[""White""]","No","Female","716239","","","","","","","","113","30","113","17","17","",""
"2990","4","rating","canvas-keyboard-response","311","425688","0.0-11.0-0.150","112","2022-3-30","14:20:47","1","22","[""White""]","No","Female","716239","","","","","","","","282","113","57","33","40","0",""
"null","null","clear_screen","canvas-keyboard-response","312","425949","0.0-11.0-1.150","112","2022-3-30","14:20:47","1","22","[""White""]","No","Female","716239","","","","","","","","282","113","57","33","40","",""
"1389","3","rating","canvas-keyboard-response","313","427351","0.0-11.0-0.151","112","2022-3-30","14:20:47","1","22","[""White""]","No","Female","716239","","","","","","","","246","140","30","25","33","1",""
"null","null","clear_screen","canvas-keyboard-response","314","427612","0.0-11.0-1.151","112","2022-3-30","14:20:47","1","22","[""White""]","No","Female","716239","","","","","","","","246","140","30","25","33","",""
"1119","1","rating","canvas-keyboard-response","315","428742","0.0-11.0-0.152","112","2022-3-30","14:20:47","1","22","[""White""]","No","Female","716239","","","","","","","","195","140","140","17","40","0",""
"null","null","clear_screen","canvas-keyboard-response","316","429004","0.0-11.0-1.152","112","2022-3-30","14:20:47","1","22","[""White""]","No","Female","716239","","","","","","","","195","140","140","17","40","",""
"2134","1","rating","canvas-keyboard-response","317","431150","0.0-11.0-0.153","112","2022-3-30","14:20:47","1","22","[""White""]","No","Female","716239","","","","","","","","180","113","140","17","40","0",""
"null","null","clear_screen","canvas-keyboard-response","318","431410","0.0-11.0-1.153","112","2022-3-30","14:20:47","1","22","[""White""]","No","Female","716239","","","","","","","","180","113","140","17","40","",""
"2001","8","rating","canvas-keyboard-response","319","433422","0.0-11.0-0.154","112","2022-3-30","14:20:47","1","22","[""White""]","No","Female","716239","","","","","","","","143","57","30","17","40","0",""
"null","null","clear_screen","canvas-keyboard-response","320","433682","0.0-11.0-1.154","112","2022-3-30","14:20:47","1","22","[""White""]","No","Female","716239","","","","","","","","143","57","30","17","40","",""
"1495","9","rating","canvas-keyboard-response","321","435190","0.0-11.0-0.155","112","2022-3-30","14:20:47","1","22","[""White""]","No","Female","716239","","","","","","","","268","57","30","33","40","1",""
"null","null","clear_screen","canvas-keyboard-response","322","435450","0.0-11.0-1.155","112","2022-3-30","14:20:47","1","22","[""White""]","No","Female","716239","","","","","","","","268","57","30","33","40","",""
"1634","4","rating","canvas-keyboard-response","323","437094","0.0-11.0-0.156","112","2022-3-30","14:20:47","1","22","[""White""]","No","Female","716239","","","","","","","","59","85","140","10","25","0",""
"null","null","clear_screen","canvas-keyboard-response","324","437355","0.0-11.0-1.156","112","2022-3-30","14:20:47","1","22","[""White""]","No","Female","716239","","","","","","","","59","85","140","10","25","",""
"1173","1","rating","canvas-keyboard-response","325","438542","0.0-11.0-0.157","112","2022-3-30","14:20:47","1","22","[""White""]","No","Female","716239","","","","","","","","254","140","113","25","40","0",""
"null","null","clear_screen","canvas-keyboard-response","326","438801","0.0-11.0-1.157","112","2022-3-30","14:20:47","1","22","[""White""]","No","Female","716239","","","","","","","","254","140","113","25","40","",""
"1715","5","rating","canvas-keyboard-response","327","440527","0.0-11.0-0.158","112","2022-3-30","14:20:47","1","22","[""White""]","No","Female","716239","","","","","","","","92","140","57","10","17","1",""
"null","null","clear_screen","canvas-keyboard-response","328","440787","0.0-11.0-1.158","112","2022-3-30","14:20:47","1","22","[""White""]","No","Female","716239","","","","","","","","92","140","57","10","17","",""
"1463","5","rating","canvas-keyboard-response","329","442262","0.0-11.0-0.159","112","2022-3-30","14:20:47","1","22","[""White""]","No","Female","716239","","","","","","","","191","140","30","17","40","0",""
"null","null","clear_screen","canvas-keyboard-response","330","442523","0.0-11.0-1.159","112","2022-3-30","14:20:47","1","22","[""White""]","No","Female","716239","","","","","","","","191","140","30","17","40","",""
"2708","6","rating","canvas-keyboard-response","331","445246","0.0-11.0-0.160","112","2022-3-30","14:20:47","1","22","[""White""]","No","Female","716239","","","","","","","","230","85","30","25","40","0",""
"null","null","clear_screen","canvas-keyboard-response","332","445505","0.0-11.0-1.160","112","2022-3-30","14:20:47","1","22","[""White""]","No","Female","716239","","","","","","","","230","85","30","25","40","",""
"1235","1","rating","canvas-keyboard-response","333","446750","0.0-11.0-0.161","112","2022-3-30","14:20:47","1","22","[""White""]","No","Female","716239","","","","","","","","235","113","140","25","25","0",""
"null","null","clear_screen","canvas-keyboard-response","334","447011","0.0-11.0-1.161","112","2022-3-30","14:20:47","1","22","[""White""]","No","Female","716239","","","","","","","","235","113","140","25","25","",""
"2005","5","rating","canvas-keyboard-response","335","449031","0.0-11.0-0.162","112","2022-3-30","14:20:47","1","22","[""White""]","No","Female","716239","","","","","","","","87","113","57","10","40","0",""
"null","null","clear_screen","canvas-keyboard-response","336","449289","0.0-11.0-1.162","112","2022-3-30","14:20:47","1","22","[""White""]","No","Female","716239","","","","","","","","87","113","57","10","40","",""
"1446","4","rating","canvas-keyboard-response","337","450750","0.0-11.0-0.163","112","2022-3-30","14:20:47","1","22","[""White""]","No","Female","716239","","","","","","","","147","57","140","17","40","1",""
"null","null","clear_screen","canvas-keyboard-response","338","451012","0.0-11.0-1.163","112","2022-3-30","14:20:47","1","22","[""White""]","No","Female","716239","","","","","","","","147","57","140","17","40","",""
"1590","9","rating","canvas-keyboard-response","339","452614","0.0-11.0-0.164","112","2022-3-30","14:20:47","1","22","[""White""]","No","Female","716239","","","","","","","","125","30","30","17","40","1",""
"null","null","clear_screen","canvas-keyboard-response","340","452872","0.0-11.0-1.164","112","2022-3-30","14:20:47","1","22","[""White""]","No","Female","716239","","","","","","","","125","30","30","17","40","",""
"1691","7","rating","canvas-keyboard-response","341","454574","0.0-11.0-0.165","112","2022-3-30","14:20:47","1","22","[""White""]","No","Female","716239","","","","","","","","262","30","85","33","40","1",""
"null","null","clear_screen","canvas-keyboard-response","342","454835","0.0-11.0-1.165","112","2022-3-30","14:20:47","1","22","[""White""]","No","Female","716239","","","","","","","","262","30","85","33","40","",""
"1768","7","rating","canvas-keyboard-response","343","456613","0.0-11.0-0.166","112","2022-3-30","14:20:47","1","22","[""White""]","No","Female","716239","","","","","","","","140","57","85","17","33","1",""
"null","null","clear_screen","canvas-keyboard-response","344","456873","0.0-11.0-1.166","112","2022-3-30","14:20:47","1","22","[""White""]","No","Female","716239","","","","","","","","140","57","85","17","33","",""
"1462","5","rating","canvas-keyboard-response","345","458342","0.0-11.0-0.167","112","2022-3-30","14:20:47","1","22","[""White""]","No","Female","716239","","","","","","","","23","30","113","10","40","0",""
"null","null","clear_screen","canvas-keyboard-response","346","458603","0.0-11.0-1.167","112","2022-3-30","14:20:47","1","22","[""White""]","No","Female","716239","","","","","","","","23","30","113","10","40","",""
"1200","4","rating","canvas-keyboard-response","347","459815","0.0-11.0-0.168","112","2022-3-30","14:20:47","1","22","[""White""]","No","Female","716239","","","","","","","","188","140","85","17","33","0",""
"null","null","clear_screen","canvas-keyboard-response","348","460075","0.0-11.0-1.168","112","2022-3-30","14:20:47","1","22","[""White""]","No","Female","716239","","","","","","","","188","140","85","17","33","",""
"1189","4","rating","canvas-keyboard-response","349","461278","0.0-11.0-0.169","112","2022-3-30","14:20:47","1","22","[""White""]","No","Female","716239","","","","","","","","114","30","140","17","17","0",""
"null","null","clear_screen","canvas-keyboard-response","350","461539","0.0-11.0-1.169","112","2022-3-30","14:20:47","1","22","[""White""]","No","Female","716239","","","","","","","","114","30","140","17","17","",""
"1548","7","rating","canvas-keyboard-response","351","463102","0.0-11.0-0.170","112","2022-3-30","14:20:47","1","22","[""White""]","No","Female","716239","","","","","","","","150","85","30","17","25","0",""
"null","null","clear_screen","canvas-keyboard-response","352","463364","0.0-11.0-1.170","112","2022-3-30","14:20:47","1","22","[""White""]","No","Female","716239","","","","","","","","150","85","30","17","25","",""
"1524","9","rating","canvas-keyboard-response","353","464902","0.0-11.0-0.171","112","2022-3-30","14:20:47","1","22","[""White""]","No","Female","716239","","","","","","","","214","57","57","25","33","0",""
"null","null","clear_screen","canvas-keyboard-response","354","465161","0.0-11.0-1.171","112","2022-3-30","14:20:47","1","22","[""White""]","No","Female","716239","","","","","","","","214","57","57","25","33","",""
"1656","7","rating","canvas-keyboard-response","355","466831","0.0-11.0-0.172","112","2022-3-30","14:20:47","1","22","[""White""]","No","Female","716239","","","","","","","","8","30","113","10","17","0",""
"null","null","clear_screen","canvas-keyboard-response","356","467091","0.0-11.0-1.172","112","2022-3-30","14:20:47","1","22","[""White""]","No","Female","716239","","","","","","","","8","30","113","10","17","",""
"2468","4","rating","canvas-keyboard-response","357","469575","0.0-11.0-0.173","112","2022-3-30","14:20:47","1","22","[""White""]","No","Female","716239","","","","","","","","54","85","140","10","17","1",""
"null","null","clear_screen","canvas-keyboard-response","358","469834","0.0-11.0-1.173","112","2022-3-30","14:20:47","1","22","[""White""]","No","Female","716239","","","","","","","","54","85","140","10","17","",""
"1159","3","rating","canvas-keyboard-response","359","471006","0.0-11.0-0.174","112","2022-3-30","14:20:47","1","22","[""White""]","No","Female","716239","","","","","","","","209","30","140","25","40","1",""
"null","null","clear_screen","canvas-keyboard-response","360","471264","0.0-11.0-1.174","112","2022-3-30","14:20:47","1","22","[""White""]","No","Female","716239","","","","","","","","209","30","140","25","40","",""
"1776","3","rating","canvas-keyboard-response","361","473054","0.0-11.0-0.175","112","2022-3-30","14:20:47","1","22","[""White""]","No","Female","716239","","","","","","","","97","140","57","10","25","0",""
"null","null","clear_screen","canvas-keyboard-response","362","473316","0.0-11.0-1.175","112","2022-3-30","14:20:47","1","22","[""White""]","No","Female","716239","","","","","","","","97","140","57","10","25","",""
"2043","7","rating","canvas-keyboard-response","363","475375","0.0-11.0-0.176","112","2022-3-30","14:20:47","1","22","[""White""]","No","Female","716239","","","","","","","","56","85","57","10","25","1",""
"null","null","clear_screen","canvas-keyboard-response","364","475636","0.0-11.0-1.176","112","2022-3-30","14:20:47","1","22","[""White""]","No","Female","716239","","","","","","","","56","85","57","10","25","",""
"1256","4","rating","canvas-keyboard-response","365","476902","0.0-11.0-0.177","112","2022-3-30","14:20:47","1","22","[""White""]","No","Female","716239","","","","","","","","187","140","57","17","33","1",""
"null","null","clear_screen","canvas-keyboard-response","366","477161","0.0-11.0-1.177","112","2022-3-30","14:20:47","1","22","[""White""]","No","Female","716239","","","","","","","","187","140","57","17","33","",""
"1745","7","rating","canvas-keyboard-response","367","478919","0.0-11.0-0.178","112","2022-3-30","14:20:47","1","22","[""White""]","No","Female","716239","","","","","","","","2","30","85","10","10","1",""
"null","null","clear_screen","canvas-keyboard-response","368","479178","0.0-11.0-1.178","112","2022-3-30","14:20:47","1","22","[""White""]","No","Female","716239","","","","","","","","2","30","85","10","10","",""
"1161","9","rating","canvas-keyboard-response","369","480350","0.0-11.0-0.179","112","2022-3-30","14:20:47","1","22","[""White""]","No","Female","716239","","","","","","","","200","30","30","25","33","1",""
"null","null","clear_screen","canvas-keyboard-response","370","480611","0.0-11.0-1.179","112","2022-3-30","14:20:47","1","22","[""White""]","No","Female","716239","","","","","","","","200","30","30","25","33","",""
"3674","7","rating","canvas-keyboard-response","371","484293","0.0-11.0-0.180","112","2022-3-30","14:20:47","1","22","[""White""]","No","Female","716239","","","","","","","","273","85","113","33","33","0",""
"null","null","clear_screen","canvas-keyboard-response","372","484555","0.0-11.0-1.180","112","2022-3-30","14:20:47","1","22","[""White""]","No","Female","716239","","","","","","","","273","85","113","33","33","",""
"1184","7","rating","canvas-keyboard-response","373","485750","0.0-11.0-0.181","112","2022-3-30","14:20:47","1","22","[""White""]","No","Female","716239","","","","","","","","63","85","113","10","33","0",""
"null","null","clear_screen","canvas-keyboard-response","374","486009","0.0-11.0-1.181","112","2022-3-30","14:20:47","1","22","[""White""]","No","Female","716239","","","","","","","","63","85","113","10","33","",""
"2630","6","rating","canvas-keyboard-response","375","488655","0.0-11.0-0.182","112","2022-3-30","14:20:47","1","22","[""White""]","No","Female","716239","","","","","","","","178","113","85","17","40","1",""
"null","null","clear_screen","canvas-keyboard-response","376","488917","0.0-11.0-1.182","112","2022-3-30","14:20:47","1","22","[""White""]","No","Female","716239","","","","","","","","178","113","85","17","40","",""
"1348","8","rating","canvas-keyboard-response","377","490278","0.0-11.0-0.183","112","2022-3-30","14:20:47","1","22","[""White""]","No","Female","716239","","","","","","","","256","30","57","33","33","1",""
"null","null","clear_screen","canvas-keyboard-response","378","490540","0.0-11.0-1.183","112","2022-3-30","14:20:47","1","22","[""White""]","No","Female","716239","","","","","","","","256","30","57","33","33","",""
"2240","8","rating","canvas-keyboard-response","379","492791","0.0-11.0-0.184","112","2022-3-30","14:20:47","1","22","[""White""]","No","Female","716239","","","","","","","","35","57","85","10","25","1",""
"null","null","clear_screen","canvas-keyboard-response","380","493050","0.0-11.0-1.184","112","2022-3-30","14:20:47","1","22","[""White""]","No","Female","716239","","","","","","","","35","57","85","10","25","",""
"1317","8","rating","canvas-keyboard-response","381","494383","0.0-11.0-0.185","112","2022-3-30","14:20:47","1","22","[""White""]","No","Female","716239","","","","","","","","201","30","57","25","33","0",""
"null","null","clear_screen","canvas-keyboard-response","382","494643","0.0-11.0-1.185","112","2022-3-30","14:20:47","1","22","[""White""]","No","Female","716239","","","","","","","","201","30","57","25","33","",""
"2101","7","rating","canvas-keyboard-response","383","496759","0.0-11.0-0.186","112","2022-3-30","14:20:47","1","22","[""White""]","No","Female","716239","","","","","","","","112","30","85","17","17","1",""
"null","null","clear_screen","canvas-keyboard-response","384","497018","0.0-11.0-1.186","112","2022-3-30","14:20:47","1","22","[""White""]","No","Female","716239","","","","","","","","112","30","85","17","17","",""
"2184","4","rating","canvas-keyboard-response","385","499212","0.0-11.0-0.187","112","2022-3-30","14:20:47","1","22","[""White""]","No","Female","716239","","","","","","","","252","140","57","25","40","0",""
"null","null","clear_screen","canvas-keyboard-response","386","499467","0.0-11.0-1.187","112","2022-3-30","14:20:47","1","22","[""White""]","No","Female","716239","","","","","","","","252","140","57","25","40","",""
"1253","4","rating","canvas-keyboard-response","387","500734","0.0-11.0-0.188","112","2022-3-30","14:20:47","1","22","[""White""]","No","Female","716239","","","","","","","","73","113","85","10","17","0",""
"null","null","clear_screen","canvas-keyboard-response","388","500995","0.0-11.0-1.188","112","2022-3-30","14:20:47","1","22","[""White""]","No","Female","716239","","","","","","","","73","113","85","10","17","",""
"1656","7","rating","canvas-keyboard-response","389","502662","0.0-11.0-0.189","112","2022-3-30","14:20:47","1","22","[""White""]","No","Female","716239","","","","","","","","43","57","30","10","40","1",""
"null","null","clear_screen","canvas-keyboard-response","390","502923","0.0-11.0-1.189","112","2022-3-30","14:20:47","1","22","[""White""]","No","Female","716239","","","","","","","","43","57","30","10","40","",""
"1520","6","rating","canvas-keyboard-response","391","504455","0.0-11.0-0.190","112","2022-3-30","14:20:47","1","22","[""White""]","No","Female","716239","","","","","","","","293","30","113","40","40","0",""
"null","null","clear_screen","canvas-keyboard-response","392","504716","0.0-11.0-1.190","112","2022-3-30","14:20:47","1","22","[""White""]","No","Female","716239","","","","","","","","293","30","113","40","40","",""
"1269","7","rating","canvas-keyboard-response","393","505998","0.0-11.0-0.191","112","2022-3-30","14:20:47","1","22","[""White""]","No","Female","716239","","","","","","","","167","113","57","17","25","1",""
"null","null","clear_screen","canvas-keyboard-response","394","506260","0.0-11.0-1.191","112","2022-3-30","14:20:47","1","22","[""White""]","No","Female","716239","","","","","","","","167","113","57","17","25","",""
"1853","5","rating","canvas-keyboard-response","395","508126","0.0-11.0-0.192","112","2022-3-30","14:20:47","1","22","[""White""]","No","Female","716239","","","","","","","","149","85","140","17","17","1",""
"null","null","clear_screen","canvas-keyboard-response","396","508386","0.0-11.0-1.192","112","2022-3-30","14:20:47","1","22","[""White""]","No","Female","716239","","","","","","","","149","85","140","17","17","",""
"1104","5","rating","canvas-keyboard-response","397","509502","0.0-11.0-0.193","112","2022-3-30","14:20:47","1","22","[""White""]","No","Female","716239","","","","","","","","169","113","113","17","25","1",""
"null","null","clear_screen","canvas-keyboard-response","398","509761","0.0-11.0-1.193","112","2022-3-30","14:20:47","1","22","[""White""]","No","Female","716239","","","","","","","","169","113","113","17","25","",""
"2082","8","rating","canvas-keyboard-response","399","511854","0.0-11.0-0.194","112","2022-3-30","14:20:47","1","22","[""White""]","No","Female","716239","","","","","","","","11","30","57","10","25","0",""
"null","null","clear_screen","canvas-keyboard-response","400","512115","0.0-11.0-1.194","112","2022-3-30","14:20:47","1","22","[""White""]","No","Female","716239","","","","","","","","11","30","57","10","25","",""
"2441","8","rating","canvas-keyboard-response","401","514566","0.0-11.0-0.195","112","2022-3-30","14:20:47","1","22","[""White""]","No","Female","716239","","","","","","","","237","113","57","25","33","1",""
"null","null","clear_screen","canvas-keyboard-response","402","514826","0.0-11.0-1.195","112","2022-3-30","14:20:47","1","22","[""White""]","No","Female","716239","","","","","","","","237","113","57","25","33","",""
"1376","5","rating","canvas-keyboard-response","403","516214","0.0-11.0-0.196","112","2022-3-30","14:20:47","1","22","[""White""]","No","Female","716239","","","","","","","","91","140","30","10","17","1",""
"1","r","clear_screen","canvas-keyboard-response","404","516225","0.0-11.0-1.196","112","2022-3-30","14:20:47","1","22","[""White""]","No","Female","716239","","","","","","","","91","140","30","10","17","",""
"2448","6","rating","canvas-keyboard-response","405","518678","0.0-11.0-0.197","112","2022-3-30","14:20:47","1","22","[""White""]","No","Female","716239","","","","","","","","117","30","85","17","25","0",""
"null","null","clear_screen","canvas-keyboard-response","406","518939","0.0-11.0-1.197","112","2022-3-30","14:20:47","1","22","[""White""]","No","Female","716239","","","","","","","","117","30","85","17","25","",""
"1248","9","rating","canvas-keyboard-response","407","520198","0.0-11.0-0.198","112","2022-3-30","14:20:47","1","22","[""White""]","No","Female","716239","","","","","","","","29","57","57","10","17","0",""
"null","null","clear_screen","canvas-keyboard-response","408","520456","0.0-11.0-1.198","112","2022-3-30","14:20:47","1","22","[""White""]","No","Female","716239","","","","","","","","29","57","57","10","17","",""
"4595","6","rating","canvas-keyboard-response","409","525062","0.0-11.0-0.199","112","2022-3-30","14:20:47","1","22","[""White""]","No","Female","716239","","","","","","","","221","57","113","25","40","1",""
"null","null","clear_screen","canvas-keyboard-response","410","525321","0.0-11.0-1.199","112","2022-3-30","14:20:47","1","22","[""White""]","No","Female","716239","","","","","","","","221","57","113","25","40","",""
"1311","6","rating","canvas-keyboard-response","411","526647","0.0-11.0-0.200","112","2022-3-30","14:20:47","1","22","[""White""]","No","Female","716239","","","","","","","","257","30","85","33","33","0",""
"null","null","clear_screen","canvas-keyboard-response","412","526910","0.0-11.0-1.200","112","2022-3-30","14:20:47","1","22","[""White""]","No","Female","716239","","","","","","","","257","30","85","33","33","",""
"1275","6","rating","canvas-keyboard-response","413","528199","0.0-11.0-0.201","112","2022-3-30","14:20:47","1","22","[""White""]","No","Female","716239","","","","","","","","228","85","113","25","33","0",""
"null","null","clear_screen","canvas-keyboard-response","414","528460","0.0-11.0-1.201","112","2022-3-30","14:20:47","1","22","[""White""]","No","Female","716239","","","","","","","","228","85","113","25","33","",""
"1629","7","rating","canvas-keyboard-response","415","530102","0.0-11.0-0.202","112","2022-3-30","14:20:47","1","22","[""White""]","No","Female","716239","","","","","","","","277","85","85","33","40","1",""
"null","null","clear_screen","canvas-keyboard-response","416","530362","0.0-11.0-1.202","112","2022-3-30","14:20:47","1","22","[""White""]","No","Female","716239","","","","","","","","277","85","85","33","40","",""
"1864","7","rating","canvas-keyboard-response","417","532238","0.0-11.0-0.203","112","2022-3-30","14:20:47","1","22","[""White""]","No","Female","716239","","","","","","","","276","85","57","33","40","1",""
"null","null","clear_screen","canvas-keyboard-response","418","532499","0.0-11.0-1.203","112","2022-3-30","14:20:47","1","22","[""White""]","No","Female","716239","","","","","","","","276","85","57","33","40","",""
"1783","7","rating","canvas-keyboard-response","419","534294","0.0-11.0-0.204","112","2022-3-30","14:20:47","1","22","[""White""]","No","Female","716239","","","","","","","","7","30","85","10","17","0",""
"null","null","clear_screen","canvas-keyboard-response","420","534556","0.0-11.0-1.204","112","2022-3-30","14:20:47","1","22","[""White""]","No","Female","716239","","","","","","","","7","30","85","10","17","",""
"1146","6","rating","canvas-keyboard-response","421","535718","0.0-11.0-0.205","112","2022-3-30","14:20:47","1","22","[""White""]","No","Female","716239","","","","","","","","243","113","85","25","40","0",""
"null","null","clear_screen","canvas-keyboard-response","422","535980","0.0-11.0-1.205","112","2022-3-30","14:20:47","1","22","[""White""]","No","Female","716239","","","","","","","","243","113","85","25","40","",""
"824","6","rating","canvas-keyboard-response","423","536815","0.0-11.0-0.206","112","2022-3-30","14:20:47","1","22","[""White""]","No","Female","716239","","","","","","","","131","57","113","17","17","0",""
"null","null","clear_screen","canvas-keyboard-response","424","537074","0.0-11.0-1.206","112","2022-3-30","14:20:47","1","22","[""White""]","No","Female","716239","","","","","","","","131","57","113","17","17","",""
"819","6","rating","canvas-keyboard-response","425","537903","0.0-11.0-0.207","112","2022-3-30","14:20:47","1","22","[""White""]","No","Female","716239","","","","","","","","159","85","140","17","33","0",""
"null","null","clear_screen","canvas-keyboard-response","426","538162","0.0-11.0-1.207","112","2022-3-30","14:20:47","1","22","[""White""]","No","Female","716239","","","","","","","","159","85","140","17","33","",""
"2961","6","rating","canvas-keyboard-response","427","541135","0.0-11.0-0.208","112","2022-3-30","14:20:47","1","22","[""White""]","No","Female","716239","","","","","","","","57","85","85","10","25","1",""
"null","null","clear_screen","canvas-keyboard-response","428","541396","0.0-11.0-1.208","112","2022-3-30","14:20:47","1","22","[""White""]","No","Female","716239","","","","","","","","57","85","85","10","25","",""
"1453","7","rating","canvas-keyboard-response","429","542863","0.0-11.0-0.209","112","2022-3-30","14:20:47","1","22","[""White""]","No","Female","716239","","","","","","","","51","85","57","10","17","0",""
"null","null","clear_screen","canvas-keyboard-response","430","543122","0.0-11.0-1.209","112","2022-3-30","14:20:47","1","22","[""White""]","No","Female","716239","","","","","","","","51","85","57","10","17","",""
"1031","6","rating","canvas-keyboard-response","431","544164","0.0-11.0-0.210","112","2022-3-30","14:20:47","1","22","[""White""]","No","Female","716239","","","","","","","","25","57","85","10","10","1",""
"null","null","clear_screen","canvas-keyboard-response","432","544423","0.0-11.0-1.210","112","2022-3-30","14:20:47","1","22","[""White""]","No","Female","716239","","","","","","","","25","57","85","10","10","",""
"1650","8","rating","canvas-keyboard-response","433","546086","0.0-11.0-0.211","112","2022-3-30","14:20:47","1","22","[""White""]","No","Female","716239","","","","","","","","206","30","57","25","40","0",""
"null","null","clear_screen","canvas-keyboard-response","434","546346","0.0-11.0-1.211","112","2022-3-30","14:20:47","1","22","[""White""]","No","Female","716239","","","","","","","","206","30","57","25","40","",""
"2549","8","rating","canvas-keyboard-response","435","548910","0.0-11.0-0.212","112","2022-3-30","14:20:47","1","22","[""White""]","No","Female","716239","","","","","","","","205","30","30","25","40","0",""
"null","null","clear_screen","canvas-keyboard-response","436","549172","0.0-11.0-1.212","112","2022-3-30","14:20:47","1","22","[""White""]","No","Female","716239","","","","","","","","205","30","30","25","40","",""
"1337","1","rating","canvas-keyboard-response","437","550519","0.0-11.0-0.213","112","2022-3-30","14:20:47","1","22","[""White""]","No","Female","716239","","","","","","","","96","140","30","10","25","1",""
"null","null","clear_screen","canvas-keyboard-response","438","550780","0.0-11.0-1.213","112","2022-3-30","14:20:47","1","22","[""White""]","No","Female","716239","","","","","","","","96","140","30","10","25","",""
"1964","6","rating","canvas-keyboard-response","439","552751","0.0-11.0-0.214","112","2022-3-30","14:20:47","1","22","[""White""]","No","Female","716239","","","","","","","","21","30","57","10","40","1",""
"null","null","clear_screen","canvas-keyboard-response","440","553008","0.0-11.0-1.214","112","2022-3-30","14:20:47","1","22","[""White""]","No","Female","716239","","","","","","","","21","30","57","10","40","",""
"1207","5","rating","canvas-keyboard-response","441","554230","0.0-11.0-0.215","112","2022-3-30","14:20:47","1","22","[""White""]","No","Female","716239","","","","","","","","239","113","113","25","33","1",""
"null","null","clear_screen","canvas-keyboard-response","442","554491","0.0-11.0-1.215","112","2022-3-30","14:20:47","1","22","[""White""]","No","Female","716239","","","","","","","","239","113","113","25","33","",""
"1486","8","rating","canvas-keyboard-response","443","555990","0.0-11.0-0.216","112","2022-3-30","14:20:47","1","22","[""White""]","No","Female","716239","","","","","","","","111","30","57","17","17","0",""
"null","null","clear_screen","canvas-keyboard-response","444","556252","0.0-11.0-1.216","112","2022-3-30","14:20:47","1","22","[""White""]","No","Female","716239","","","","","","","","111","30","57","17","17","",""
"1500","5","rating","canvas-keyboard-response","445","557766","0.0-11.0-0.217","112","2022-3-30","14:20:47","1","22","[""White""]","No","Female","716239","","","","","","","","82","113","57","10","33","0",""
"null","null","clear_screen","canvas-keyboard-response","446","558025","0.0-11.0-1.217","112","2022-3-30","14:20:47","1","22","[""White""]","No","Female","716239","","","","","","","","82","113","57","10","33","",""
"1459","7","rating","canvas-keyboard-response","447","559494","0.0-11.0-0.218","112","2022-3-30","14:20:47","1","22","[""White""]","No","Female","716239","","","","","","","","197","30","85","25","25","0",""
"null","null","clear_screen","canvas-keyboard-response","448","559753","0.0-11.0-1.218","112","2022-3-30","14:20:47","1","22","[""White""]","No","Female","716239","","","","","","","","197","30","85","25","25","",""
"2059","6","rating","canvas-keyboard-response","449","561822","0.0-11.0-0.219","112","2022-3-30","14:20:47","1","22","[""White""]","No","Female","716239","","","","","","","","65","85","30","10","40","1",""
"null","null","clear_screen","canvas-keyboard-response","450","562081","0.0-11.0-1.219","112","2022-3-30","14:20:47","1","22","[""White""]","No","Female","716239","","","","","","","","65","85","30","10","40","",""
"1289","5","rating","canvas-keyboard-response","451","563382","0.0-11.0-0.220","112","2022-3-30","14:20:47","1","22","[""White""]","No","Female","716239","","","","","","","","53","85","113","10","17","1",""
"null","null","clear_screen","canvas-keyboard-response","452","563643","0.0-11.0-1.220","112","2022-3-30","14:20:47","1","22","[""White""]","No","Female","716239","","","","","","","","53","85","113","10","17","",""
"4744","5","rating","canvas-keyboard-response","453","568398","0.0-11.0-0.221","112","2022-3-30","14:20:47","1","22","[""White""]","No","Female","716239","","","","","","","","176","113","30","17","40","0",""
"null","null","clear_screen","canvas-keyboard-response","454","568658","0.0-11.0-1.221","112","2022-3-30","14:20:47","1","22","[""White""]","No","Female","716239","","","","","","","","176","113","30","17","40","",""
"1558","3","rating","canvas-keyboard-response","455","570229","0.0-11.0-0.222","112","2022-3-30","14:20:47","1","22","[""White""]","No","Female","716239","","","","","","","","102","140","57","10","33","1",""
"null","null","clear_screen","canvas-keyboard-response","456","570491","0.0-11.0-1.222","112","2022-3-30","14:20:47","1","22","[""White""]","No","Female","716239","","","","","","","","102","140","57","10","33","",""
"1991","3","rating","canvas-keyboard-response","457","572495","0.0-11.0-0.223","112","2022-3-30","14:20:47","1","22","[""White""]","No","Female","716239","","","","","","","","208","30","113","25","40","0",""
"null","null","clear_screen","canvas-keyboard-response","458","572757","0.0-11.0-1.223","112","2022-3-30","14:20:47","1","22","[""White""]","No","Female","716239","","","","","","","","208","30","113","25","40","",""
"923","3","rating","canvas-keyboard-response","459","573694","0.0-11.0-0.224","112","2022-3-30","14:20:47","1","22","[""White""]","No","Female","716239","","","","","","","","27","57","140","10","10","1",""
"null","null","clear_screen","canvas-keyboard-response","460","573956","0.0-11.0-1.224","112","2022-3-30","14:20:47","1","22","[""White""]","No","Female","716239","","","","","","","","27","57","140","10","10","",""
"806","3","rating","canvas-keyboard-response","461","574774","0.0-11.0-0.225","112","2022-3-30","14:20:47","1","22","[""White""]","No","Female","716239","","","","","","","","259","30","140","33","33","0",""
"null","null","clear_screen","canvas-keyboard-response","462","575034","0.0-11.0-1.225","112","2022-3-30","14:20:47","1","22","[""White""]","No","Female","716239","","","","","","","","259","30","140","33","33","",""
"2053","7","rating","canvas-keyboard-response","463","577102","0.0-11.0-0.226","112","2022-3-30","14:20:47","1","22","[""White""]","No","Female","716239","","","","","","","","144","57","57","17","40","1",""
"null","null","clear_screen","canvas-keyboard-response","464","577360","0.0-11.0-1.226","112","2022-3-30","14:20:47","1","22","[""White""]","No","Female","716239","","","","","","","","144","57","57","17","40","",""
"1465","6","rating","canvas-keyboard-response","465","578838","0.0-11.0-0.227","112","2022-3-30","14:20:47","1","22","[""White""]","No","Female","716239","","","","","","","","160","85","30","17","40","0",""
