"rt","response","trialType","trial_type","trial_index","time_elapsed","internal_node_id","sub_n","date","time","leftRight","age","race","ethnicity","gender","exp_duration","success","timeout","failed_images","failed_audio","failed_video","stimulus","view_history","trialID","radius_a","radius_b","angle_a","angle_b","lrCond","question_order"
"20229","{""response"":""105""}","enter-sub-number","survey-html-form","0","20242","0.0-0.0","105","2022-3-23","13:36:43","0","18","[""Asian"",""White""]","No","Female","1311493","","","","","","","","","","","","","",""
"","","","fullscreen","1","23419","0.0-1.0","105","2022-3-23","13:36:43","0","18","[""Asian"",""White""]","No","Female","1311493","true","","","","","","","","","","","","",""
"","","","preload","2","23440","0.0-2.0","105","2022-3-23","13:36:43","0","18","[""Asian"",""White""]","No","Female","1311493","true","false","[]","[]","[]","","","","","","","","",""
"139235","0","","html-button-response","3","162677","0.0-3.0","105","2022-3-23","13:36:43","0","18","[""Asian"",""White""]","No","Female","1311493","","","","","","<div style= ""font-size:25px;"" <p> <strong> Welcome to the experiment! </strong><br> <p style=""color:#8B0000; font-size:25px;""><strong> Please do NOT exit full screen until you are done with the experiment. </strong> </p><p style=""font-size:25px;color:#8B0000;""> <strong> The experiment will be canceled and your data will be lost <br> if you try to go back or refresh the page at any point during the experiment.</strong> </p><br><p> <strong> Thanks in advance for your contribution to our research! </strong></p>","","","","","","","",""
"38385","","","instructions","4","201069","0.0-4.0","105","2022-3-23","13:36:43","0","18","[""Asian"",""White""]","No","Female","1311493","","","","","","","[{""page_index"":0,""viewing_time"":11409},{""page_index"":1,""viewing_time"":15488},{""page_index"":2,""viewing_time"":11488}]","","","","","","",""
"null","null","presentPop","canvas-keyboard-response","5","217086","0.0-5.0","105","2022-3-23","13:36:43","0","18","[""Asian"",""White""]","No","Female","1311493","","","","","","","","","","","","","",""
"null","null","clear_screen","canvas-keyboard-response","6","217848","0.0-6.0","105","2022-3-23","13:36:43","0","18","[""Asian"",""White""]","No","Female","1311493","","","","","","","","","","","","","",""
"1450","","","instructions","7","219300","0.0-7.0","105","2022-3-23","13:36:43","0","18","[""Asian"",""White""]","No","Female","1311493","","","","","","","[{""page_index"":0,""viewing_time"":1450}]","","","","","","",""
"null","null","presentPop","canvas-keyboard-response","8","235315","0.0-8.0","105","2022-3-23","13:36:43","0","18","[""Asian"",""White""]","No","Female","1311493","","","","","","","","","","","","","",""
"null","null","clear_screen","canvas-keyboard-response","9","236076","0.0-9.0","105","2022-3-23","13:36:43","0","18","[""Asian"",""White""]","No","Female","1311493","","","","","","","","","","","","","",""
"5893","","","instructions","10","241972","0.0-10.0","105","2022-3-23","13:36:43","0","18","[""Asian"",""White""]","No","Female","1311493","","","","","","","[{""page_index"":0,""viewing_time"":2308},{""page_index"":1,""viewing_time"":3585}]","","","","","","",""
"9554","3","rating","canvas-keyboard-response","11","252540","0.0-11.0-0.0","105","2022-3-23","13:36:43","0","18","[""Asian"",""White""]","No","Female","1311493","","","","","","","","72","113","57","10","17","1",""
"null","null","clear_screen","canvas-keyboard-response","12","252803","0.0-11.0-1.0","105","2022-3-23","13:36:43","0","18","[""Asian"",""White""]","No","Female","1311493","","","","","","","","72","113","57","10","17","",""
"3143","7","rating","canvas-keyboard-response","13","255955","0.0-11.0-0.1","105","2022-3-23","13:36:43","0","18","[""Asian"",""White""]","No","Female","1311493","","","","","","","","180","113","140","17","40","0",""
"null","null","clear_screen","canvas-keyboard-response","14","256214","0.0-11.0-1.1","105","2022-3-23","13:36:43","0","18","[""Asian"",""White""]","No","Female","1311493","","","","","","","","180","113","140","17","40","",""
"8291","6","rating","canvas-keyboard-response","15","264516","0.0-11.0-0.2","105","2022-3-23","13:36:43","0","18","[""Asian"",""White""]","No","Female","1311493","","","","","","","","16","30","57","10","33","1",""
"null","null","clear_screen","canvas-keyboard-response","16","264776","0.0-11.0-1.2","105","2022-3-23","13:36:43","0","18","[""Asian"",""White""]","No","Female","1311493","","","","","","","","16","30","57","10","33","",""
"7815","3","rating","canvas-keyboard-response","17","272604","0.0-11.0-0.3","105","2022-3-23","13:36:43","0","18","[""Asian"",""White""]","No","Female","1311493","","","","","","","","107","140","57","10","40","1",""
"null","null","clear_screen","canvas-keyboard-response","18","272864","0.0-11.0-1.3","105","2022-3-23","13:36:43","0","18","[""Asian"",""White""]","No","Female","1311493","","","","","","","","107","140","57","10","40","",""
"6327","5","rating","canvas-keyboard-response","19","279204","0.0-11.0-0.4","105","2022-3-23","13:36:43","0","18","[""Asian"",""White""]","No","Female","1311493","","","","","","","","241","113","30","25","40","1",""
"null","null","clear_screen","canvas-keyboard-response","20","279464","0.0-11.0-1.4","105","2022-3-23","13:36:43","0","18","[""Asian"",""White""]","No","Female","1311493","","","","","","","","241","113","30","25","40","",""
"4295","8","rating","canvas-keyboard-response","21","283771","0.0-11.0-0.5","105","2022-3-23","13:36:43","0","18","[""Asian"",""White""]","No","Female","1311493","","","","","","","","175","113","140","17","33","1",""
"null","null","clear_screen","canvas-keyboard-response","22","284032","0.0-11.0-1.5","105","2022-3-23","13:36:43","0","18","[""Asian"",""White""]","No","Female","1311493","","","","","","","","175","113","140","17","33","",""
"3161","8","rating","canvas-keyboard-response","23","287203","0.0-11.0-0.6","105","2022-3-23","13:36:43","0","18","[""Asian"",""White""]","No","Female","1311493","","","","","","","","5","30","30","10","17","1",""
"null","null","clear_screen","canvas-keyboard-response","24","287464","0.0-11.0-1.6","105","2022-3-23","13:36:43","0","18","[""Asian"",""White""]","No","Female","1311493","","","","","","","","5","30","30","10","17","",""
"3376","7","rating","canvas-keyboard-response","25","290851","0.0-11.0-0.7","105","2022-3-23","13:36:43","0","18","[""Asian"",""White""]","No","Female","1311493","","","","","","","","228","85","113","25","33","0",""
"null","null","clear_screen","canvas-keyboard-response","26","291111","0.0-11.0-1.7","105","2022-3-23","13:36:43","0","18","[""Asian"",""White""]","No","Female","1311493","","","","","","","","228","85","113","25","33","",""
"2615","7","rating","canvas-keyboard-response","27","293739","0.0-11.0-0.8","105","2022-3-23","13:36:43","0","18","[""Asian"",""White""]","No","Female","1311493","","","","","","","","221","57","113","25","40","0",""
"null","null","clear_screen","canvas-keyboard-response","28","293997","0.0-11.0-1.8","105","2022-3-23","13:36:43","0","18","[""Asian"",""White""]","No","Female","1311493","","","","","","","","221","57","113","25","40","",""
"3488","6","rating","canvas-keyboard-response","29","297499","0.0-11.0-0.9","105","2022-3-23","13:36:43","0","18","[""Asian"",""White""]","No","Female","1311493","","","","","","","","11","30","57","10","25","0",""
"null","null","clear_screen","canvas-keyboard-response","30","297759","0.0-11.0-1.9","105","2022-3-23","13:36:43","0","18","[""Asian"",""White""]","No","Female","1311493","","","","","","","","11","30","57","10","25","",""
"2094","1","rating","canvas-keyboard-response","31","299867","0.0-11.0-0.10","105","2022-3-23","13:36:43","0","18","[""Asian"",""White""]","No","Female","1311493","","","","","","","","24","30","140","10","40","0",""
"null","null","clear_screen","canvas-keyboard-response","32","300128","0.0-11.0-1.10","105","2022-3-23","13:36:43","0","18","[""Asian"",""White""]","No","Female","1311493","","","","","","","","24","30","140","10","40","",""
"6320","6","rating","canvas-keyboard-response","33","306459","0.0-11.0-0.11","105","2022-3-23","13:36:43","0","18","[""Asian"",""White""]","No","Female","1311493","","","","","","","","291","30","57","40","40","1",""
"null","null","clear_screen","canvas-keyboard-response","34","306718","0.0-11.0-1.11","105","2022-3-23","13:36:43","0","18","[""Asian"",""White""]","No","Female","1311493","","","","","","","","291","30","57","40","40","",""
"2168","2","rating","canvas-keyboard-response","35","308899","0.0-11.0-0.12","105","2022-3-23","13:36:43","0","18","[""Asian"",""White""]","No","Female","1311493","","","","","","","","209","30","140","25","40","1",""
"null","null","clear_screen","canvas-keyboard-response","36","309158","0.0-11.0-1.12","105","2022-3-23","13:36:43","0","18","[""Asian"",""White""]","No","Female","1311493","","","","","","","","209","30","140","25","40","",""
"4655","7","rating","canvas-keyboard-response","37","313828","0.0-11.0-0.13","105","2022-3-23","13:36:43","0","18","[""Asian"",""White""]","No","Female","1311493","","","","","","","","153","85","113","17","25","1",""
"null","null","clear_screen","canvas-keyboard-response","38","314087","0.0-11.0-1.13","105","2022-3-23","13:36:43","0","18","[""Asian"",""White""]","No","Female","1311493","","","","","","","","153","85","113","17","25","",""
"4090","3","rating","canvas-keyboard-response","39","318187","0.0-11.0-0.14","105","2022-3-23","13:36:43","0","18","[""Asian"",""White""]","No","Female","1311493","","","","","","","","297","57","140","40","40","1",""
"null","null","clear_screen","canvas-keyboard-response","40","318446","0.0-11.0-1.14","105","2022-3-23","13:36:43","0","18","[""Asian"",""White""]","No","Female","1311493","","","","","","","","297","57","140","40","40","",""
"3561","8","rating","canvas-keyboard-response","41","322019","0.0-11.0-0.15","105","2022-3-23","13:36:43","0","18","[""Asian"",""White""]","No","Female","1311493","","","","","","","","75","113","140","10","17","0",""
"null","null","clear_screen","canvas-keyboard-response","42","322279","0.0-11.0-1.15","105","2022-3-23","13:36:43","0","18","[""Asian"",""White""]","No","Female","1311493","","","","","","","","75","113","140","10","17","",""
"4154","5","rating","canvas-keyboard-response","43","326443","0.0-11.0-0.16","105","2022-3-23","13:36:43","0","18","[""Asian"",""White""]","No","Female","1311493","","","","","","","","234","85","140","25","40","0",""
"null","null","clear_screen","canvas-keyboard-response","44","326703","0.0-11.0-1.16","105","2022-3-23","13:36:43","0","18","[""Asian"",""White""]","No","Female","1311493","","","","","","","","234","85","140","25","40","",""
"3238","5","rating","canvas-keyboard-response","45","329955","0.0-11.0-0.17","105","2022-3-23","13:36:43","0","18","[""Asian"",""White""]","No","Female","1311493","","","","","","","","33","57","30","10","25","1",""
"null","null","clear_screen","canvas-keyboard-response","46","330217","0.0-11.0-1.17","105","2022-3-23","13:36:43","0","18","[""Asian"",""White""]","No","Female","1311493","","","","","","","","33","57","30","10","25","",""
"8686","9","rating","canvas-keyboard-response","47","338915","0.0-11.0-0.18","105","2022-3-23","13:36:43","0","18","[""Asian"",""White""]","No","Female","1311493","","","","","","","","298","85","113","40","40","1",""
"null","null","clear_screen","canvas-keyboard-response","48","339175","0.0-11.0-1.18","105","2022-3-23","13:36:43","0","18","[""Asian"",""White""]","No","Female","1311493","","","","","","","","298","85","113","40","40","",""
"3399","2","rating","canvas-keyboard-response","49","342588","0.0-11.0-0.19","105","2022-3-23","13:36:43","0","18","[""Asian"",""White""]","No","Female","1311493","","","","","","","","191","140","30","17","40","1",""
"null","null","clear_screen","canvas-keyboard-response","50","342849","0.0-11.0-1.19","105","2022-3-23","13:36:43","0","18","[""Asian"",""White""]","No","Female","1311493","","","","","","","","191","140","30","17","40","",""
"2277","2","rating","canvas-keyboard-response","51","345140","0.0-11.0-0.20","105","2022-3-23","13:36:43","0","18","[""Asian"",""White""]","No","Female","1311493","","","","","","","","76","113","30","10","25","0",""
"null","null","clear_screen","canvas-keyboard-response","52","345400","0.0-11.0-1.20","105","2022-3-23","13:36:43","0","18","[""Asian"",""White""]","No","Female","1311493","","","","","","","","76","113","30","10","25","",""
"3267","4","rating","canvas-keyboard-response","53","348684","0.0-11.0-0.21","105","2022-3-23","13:36:43","0","18","[""Asian"",""White""]","No","Female","1311493","","","","","","","","142","57","140","17","33","1",""
"null","null","clear_screen","canvas-keyboard-response","54","348944","0.0-11.0-1.21","105","2022-3-23","13:36:43","0","18","[""Asian"",""White""]","No","Female","1311493","","","","","","","","142","57","140","17","33","",""
"3512","5","rating","canvas-keyboard-response","55","352468","0.0-11.0-0.22","105","2022-3-23","13:36:43","0","18","[""Asian"",""White""]","No","Female","1311493","","","","","","","","64","85","140","10","33","0",""
"null","null","clear_screen","canvas-keyboard-response","56","352728","0.0-11.0-1.22","105","2022-3-23","13:36:43","0","18","[""Asian"",""White""]","No","Female","1311493","","","","","","","","64","85","140","10","33","",""
"4165","5","rating","canvas-keyboard-response","57","356908","0.0-11.0-0.23","105","2022-3-23","13:36:43","0","18","[""Asian"",""White""]","No","Female","1311493","","","","","","","","67","85","85","10","40","1",""
"null","null","clear_screen","canvas-keyboard-response","58","357167","0.0-11.0-1.23","105","2022-3-23","13:36:43","0","18","[""Asian"",""White""]","No","Female","1311493","","","","","","","","67","85","85","10","40","",""
"2663","9","rating","canvas-keyboard-response","59","359844","0.0-11.0-0.24","105","2022-3-23","13:36:43","0","18","[""Asian"",""White""]","No","Female","1311493","","","","","","","","185","140","140","17","25","1",""
"null","null","clear_screen","canvas-keyboard-response","60","360104","0.0-11.0-1.24","105","2022-3-23","13:36:43","0","18","[""Asian"",""White""]","No","Female","1311493","","","","","","","","185","140","140","17","25","",""
"3125","8","rating","canvas-keyboard-response","61","363244","0.0-11.0-0.25","105","2022-3-23","13:36:43","0","18","[""Asian"",""White""]","No","Female","1311493","","","","","","","","80","113","140","10","25","1",""
"null","null","clear_screen","canvas-keyboard-response","62","363504","0.0-11.0-1.25","105","2022-3-23","13:36:43","0","18","[""Asian"",""White""]","No","Female","1311493","","","","","","","","80","113","140","10","25","",""
"4438","5","rating","canvas-keyboard-response","63","367956","0.0-11.0-0.26","105","2022-3-23","13:36:43","0","18","[""Asian"",""White""]","No","Female","1311493","","","","","","","","293","30","113","40","40","1",""
"null","null","clear_screen","canvas-keyboard-response","64","368217","0.0-11.0-1.26","105","2022-3-23","13:36:43","0","18","[""Asian"",""White""]","No","Female","1311493","","","","","","","","293","30","113","40","40","",""
"3869","5","rating","canvas-keyboard-response","65","372099","0.0-11.0-0.27","105","2022-3-23","13:36:43","0","18","[""Asian"",""White""]","No","Female","1311493","","","","","","","","296","57","113","40","40","0",""
"null","null","clear_screen","canvas-keyboard-response","66","372359","0.0-11.0-1.27","105","2022-3-23","13:36:43","0","18","[""Asian"",""White""]","No","Female","1311493","","","","","","","","296","57","113","40","40","",""
"5098","4","rating","canvas-keyboard-response","67","377468","0.0-11.0-0.28","105","2022-3-23","13:36:43","0","18","[""Asian"",""White""]","No","Female","1311493","","","","","","","","257","30","85","33","33","1",""
"null","null","clear_screen","canvas-keyboard-response","68","377729","0.0-11.0-1.28","105","2022-3-23","13:36:43","0","18","[""Asian"",""White""]","No","Female","1311493","","","","","","","","257","30","85","33","33","",""
"2502","3","rating","canvas-keyboard-response","69","380243","0.0-11.0-0.29","105","2022-3-23","13:36:43","0","18","[""Asian"",""White""]","No","Female","1311493","","","","","","","","236","113","30","25","33","0",""
"null","null","clear_screen","canvas-keyboard-response","70","380503","0.0-11.0-1.29","105","2022-3-23","13:36:43","0","18","[""Asian"",""White""]","No","Female","1311493","","","","","","","","236","113","30","25","33","",""
"2530","3","rating","canvas-keyboard-response","71","383044","0.0-11.0-0.30","105","2022-3-23","13:36:43","0","18","[""Asian"",""White""]","No","Female","1311493","","","","","","","","147","57","140","17","40","1",""
"null","null","clear_screen","canvas-keyboard-response","72","383303","0.0-11.0-1.30","105","2022-3-23","13:36:43","0","18","[""Asian"",""White""]","No","Female","1311493","","","","","","","","147","57","140","17","40","",""
"3430","5","rating","canvas-keyboard-response","73","386747","0.0-11.0-0.31","105","2022-3-23","13:36:43","0","18","[""Asian"",""White""]","No","Female","1311493","","","","","","","","207","30","85","25","40","0",""
"null","null","clear_screen","canvas-keyboard-response","74","387007","0.0-11.0-1.31","105","2022-3-23","13:36:43","0","18","[""Asian"",""White""]","No","Female","1311493","","","","","","","","207","30","85","25","40","",""
"3122","3","rating","canvas-keyboard-response","75","390139","0.0-11.0-0.32","105","2022-3-23","13:36:43","0","18","[""Asian"",""White""]","No","Female","1311493","","","","","","","","204","30","140","25","33","1",""
"null","null","clear_screen","canvas-keyboard-response","76","390400","0.0-11.0-1.32","105","2022-3-23","13:36:43","0","18","[""Asian"",""White""]","No","Female","1311493","","","","","","","","204","30","140","25","33","",""
"2143","3","rating","canvas-keyboard-response","77","392554","0.0-11.0-0.33","105","2022-3-23","13:36:43","0","18","[""Asian"",""White""]","No","Female","1311493","","","","","","","","128","30","113","17","40","1",""
"null","null","clear_screen","canvas-keyboard-response","78","392815","0.0-11.0-1.33","105","2022-3-23","13:36:43","0","18","[""Asian"",""White""]","No","Female","1311493","","","","","","","","128","30","113","17","40","",""
"3015","6","rating","canvas-keyboard-response","79","395843","0.0-11.0-0.34","105","2022-3-23","13:36:43","0","18","[""Asian"",""White""]","No","Female","1311493","","","","","","","","179","113","113","17","40","0",""
"null","null","clear_screen","canvas-keyboard-response","80","396103","0.0-11.0-1.34","105","2022-3-23","13:36:43","0","18","[""Asian"",""White""]","No","Female","1311493","","","","","","","","179","113","113","17","40","",""
"7729","6","rating","canvas-keyboard-response","81","403843","0.0-11.0-0.35","105","2022-3-23","13:36:43","0","18","[""Asian"",""White""]","No","Female","1311493","","","","","","","","211","57","113","25","25","1",""
"null","null","clear_screen","canvas-keyboard-response","82","404102","0.0-11.0-1.35","105","2022-3-23","13:36:43","0","18","[""Asian"",""White""]","No","Female","1311493","","","","","","","","211","57","113","25","25","",""
"1786","8","rating","canvas-keyboard-response","83","405900","0.0-11.0-0.36","105","2022-3-23","13:36:43","0","18","[""Asian"",""White""]","No","Female","1311493","","","","","","","","278","85","113","33","40","1",""
"null","null","clear_screen","canvas-keyboard-response","84","406158","0.0-11.0-1.36","105","2022-3-23","13:36:43","0","18","[""Asian"",""White""]","No","Female","1311493","","","","","","","","278","85","113","33","40","",""
"3914","4","rating","canvas-keyboard-response","85","410083","0.0-11.0-0.37","105","2022-3-23","13:36:43","0","18","[""Asian"",""White""]","No","Female","1311493","","","","","","","","98","140","85","10","25","1",""
"null","null","clear_screen","canvas-keyboard-response","86","410343","0.0-11.0-1.37","105","2022-3-23","13:36:43","0","18","[""Asian"",""White""]","No","Female","1311493","","","","","","","","98","140","85","10","25","",""
"6426","7","rating","canvas-keyboard-response","87","416779","0.0-11.0-0.38","105","2022-3-23","13:36:43","0","18","[""Asian"",""White""]","No","Female","1311493","","","","","","","","1","30","57","10","10","1",""
"null","null","clear_screen","canvas-keyboard-response","88","417038","0.0-11.0-1.38","105","2022-3-23","13:36:43","0","18","[""Asian"",""White""]","No","Female","1311493","","","","","","","","1","30","57","10","10","",""
"4039","9","rating","canvas-keyboard-response","89","421091","0.0-11.0-0.39","105","2022-3-23","13:36:43","0","18","[""Asian"",""White""]","No","Female","1311493","","","","","","","","152","85","85","17","25","0",""
"null","null","clear_screen","canvas-keyboard-response","90","421354","0.0-11.0-1.39","105","2022-3-23","13:36:43","0","18","[""Asian"",""White""]","No","Female","1311493","","","","","","","","152","85","85","17","25","",""
"5016","4","rating","canvas-keyboard-response","91","426379","0.0-11.0-0.40","105","2022-3-23","13:36:43","0","18","[""Asian"",""White""]","No","Female","1311493","","","","","","","","281","113","30","33","40","0",""
"null","null","clear_screen","canvas-keyboard-response","92","426639","0.0-11.0-1.40","105","2022-3-23","13:36:43","0","18","[""Asian"",""White""]","No","Female","1311493","","","","","","","","281","113","30","33","40","",""
"4648","3","rating","canvas-keyboard-response","93","431299","0.0-11.0-0.41","105","2022-3-23","13:36:43","0","18","[""Asian"",""White""]","No","Female","1311493","","","","","","","","193","140","85","17","40","0",""
"null","null","clear_screen","canvas-keyboard-response","94","431559","0.0-11.0-1.41","105","2022-3-23","13:36:43","0","18","[""Asian"",""White""]","No","Female","1311493","","","","","","","","193","140","85","17","40","",""
"3545","7","rating","canvas-keyboard-response","95","435116","0.0-11.0-0.42","105","2022-3-23","13:36:43","0","18","[""Asian"",""White""]","No","Female","1311493","","","","","","","","195","140","140","17","40","0",""
"null","null","clear_screen","canvas-keyboard-response","96","435376","0.0-11.0-1.42","105","2022-3-23","13:36:43","0","18","[""Asian"",""White""]","No","Female","1311493","","","","","","","","195","140","140","17","40","",""
"5993","4","rating","canvas-keyboard-response","97","441379","0.0-11.0-0.43","105","2022-3-23","13:36:43","0","18","[""Asian"",""White""]","No","Female","1311493","","","","","","","","225","85","30","25","33","0",""
"null","null","clear_screen","canvas-keyboard-response","98","441639","0.0-11.0-1.43","105","2022-3-23","13:36:43","0","18","[""Asian"",""White""]","No","Female","1311493","","","","","","","","225","85","30","25","33","",""
"8067","4","rating","canvas-keyboard-response","99","449716","0.0-11.0-0.44","105","2022-3-23","13:36:43","0","18","[""Asian"",""White""]","No","Female","1311493","","","","","","","","253","140","85","25","40","0",""
"null","null","clear_screen","canvas-keyboard-response","100","449978","0.0-11.0-1.44","105","2022-3-23","13:36:43","0","18","[""Asian"",""White""]","No","Female","1311493","","","","","","","","253","140","85","25","40","",""
"2684","4","rating","canvas-keyboard-response","101","452675","0.0-11.0-0.45","105","2022-3-23","13:36:43","0","18","[""Asian"",""White""]","No","Female","1311493","","","","","","","","272","57","140","33","40","1",""
"null","null","clear_screen","canvas-keyboard-response","102","452936","0.0-11.0-1.45","105","2022-3-23","13:36:43","0","18","[""Asian"",""White""]","No","Female","1311493","","","","","","","","272","57","140","33","40","",""
"4343","5","rating","canvas-keyboard-response","103","457291","0.0-11.0-0.46","105","2022-3-23","13:36:43","0","18","[""Asian"",""White""]","No","Female","1311493","","","","","","","","62","85","85","10","33","1",""
"null","null","clear_screen","canvas-keyboard-response","104","457553","0.0-11.0-1.46","105","2022-3-23","13:36:43","0","18","[""Asian"",""White""]","No","Female","1311493","","","","","","","","62","85","85","10","33","",""
"3839","6","rating","canvas-keyboard-response","105","461403","0.0-11.0-0.47","105","2022-3-23","13:36:43","0","18","[""Asian"",""White""]","No","Female","1311493","","","","","","","","135","57","85","17","25","0",""
"null","null","clear_screen","canvas-keyboard-response","106","461663","0.0-11.0-1.47","105","2022-3-23","13:36:43","0","18","[""Asian"",""White""]","No","Female","1311493","","","","","","","","135","57","85","17","25","",""
"2423","3","rating","canvas-keyboard-response","107","464099","0.0-11.0-0.48","105","2022-3-23","13:36:43","0","18","[""Asian"",""White""]","No","Female","1311493","","","","","","","","13","30","113","10","25","1",""
"null","null","clear_screen","canvas-keyboard-response","108","464359","0.0-11.0-1.48","105","2022-3-23","13:36:43","0","18","[""Asian"",""White""]","No","Female","1311493","","","","","","","","13","30","113","10","25","",""
"3401","2","rating","canvas-keyboard-response","109","467771","0.0-11.0-0.49","105","2022-3-23","13:36:43","0","18","[""Asian"",""White""]","No","Female","1311493","","","","","","","","45","57","85","10","40","0",""
"null","null","clear_screen","canvas-keyboard-response","110","468030","0.0-11.0-1.49","105","2022-3-23","13:36:43","0","18","[""Asian"",""White""]","No","Female","1311493","","","","","","","","45","57","85","10","40","",""
"3975","2","rating","canvas-keyboard-response","111","472019","0.0-11.0-0.50","105","2022-3-23","13:36:43","0","18","[""Asian"",""White""]","No","Female","1311493","","","","","","","","18","30","113","10","33","1",""
"null","null","clear_screen","canvas-keyboard-response","112","472282","0.0-11.0-1.50","105","2022-3-23","13:36:43","0","18","[""Asian"",""White""]","No","Female","1311493","","","","","","","","18","30","113","10","33","",""
"2380","3","rating","canvas-keyboard-response","113","474676","0.0-11.0-0.51","105","2022-3-23","13:36:43","0","18","[""Asian"",""White""]","No","Female","1311493","","","","","","","","208","30","113","25","40","1",""
"null","null","clear_screen","canvas-keyboard-response","114","474938","0.0-11.0-1.51","105","2022-3-23","13:36:43","0","18","[""Asian"",""White""]","No","Female","1311493","","","","","","","","208","30","113","25","40","",""
"5747","7","rating","canvas-keyboard-response","115","480699","0.0-11.0-0.52","105","2022-3-23","13:36:43","0","18","[""Asian"",""White""]","No","Female","1311493","","","","","","","","10","30","30","10","25","1",""
"null","null","clear_screen","canvas-keyboard-response","116","480958","0.0-11.0-1.52","105","2022-3-23","13:36:43","0","18","[""Asian"",""White""]","No","Female","1311493","","","","","","","","10","30","30","10","25","",""
"2250","3","rating","canvas-keyboard-response","117","483220","0.0-11.0-0.53","105","2022-3-23","13:36:43","0","18","[""Asian"",""White""]","No","Female","1311493","","","","","","","","19","30","140","10","33","1",""
"null","null","clear_screen","canvas-keyboard-response","118","483482","0.0-11.0-1.53","105","2022-3-23","13:36:43","0","18","[""Asian"",""White""]","No","Female","1311493","","","","","","","","19","30","140","10","33","",""
"6190","1","rating","canvas-keyboard-response","119","489683","0.0-11.0-0.54","105","2022-3-23","13:36:43","0","18","[""Asian"",""White""]","No","Female","1311493","","","","","","","","60","85","30","10","33","1",""
"null","null","clear_screen","canvas-keyboard-response","120","489944","0.0-11.0-1.54","105","2022-3-23","13:36:43","0","18","[""Asian"",""White""]","No","Female","1311493","","","","","","","","60","85","30","10","33","",""
"3332","8","rating","canvas-keyboard-response","121","493293","0.0-11.0-0.55","105","2022-3-23","13:36:43","0","18","[""Asian"",""White""]","No","Female","1311493","","","","","","","","25","57","85","10","10","1",""
"null","null","clear_screen","canvas-keyboard-response","122","493554","0.0-11.0-1.55","105","2022-3-23","13:36:43","0","18","[""Asian"",""White""]","No","Female","1311493","","","","","","","","25","57","85","10","10","",""
"3173","7","rating","canvas-keyboard-response","123","496739","0.0-11.0-0.56","105","2022-3-23","13:36:43","0","18","[""Asian"",""White""]","No","Female","1311493","","","","","","","","170","113","140","17","25","0",""
"null","null","clear_screen","canvas-keyboard-response","124","497001","0.0-11.0-1.56","105","2022-3-23","13:36:43","0","18","[""Asian"",""White""]","No","Female","1311493","","","","","","","","170","113","140","17","25","",""
"4379","5","rating","canvas-keyboard-response","125","501395","0.0-11.0-0.57","105","2022-3-23","13:36:43","0","18","[""Asian"",""White""]","No","Female","1311493","","","","","","","","162","85","85","17","40","1",""
"null","null","clear_screen","canvas-keyboard-response","126","501656","0.0-11.0-1.57","105","2022-3-23","13:36:43","0","18","[""Asian"",""White""]","No","Female","1311493","","","","","","","","162","85","85","17","40","",""
"5215","4","rating","canvas-keyboard-response","127","506885","0.0-11.0-0.58","105","2022-3-23","13:36:43","0","18","[""Asian"",""White""]","No","Female","1311493","","","","","","","","267","57","140","33","33","1",""
"null","null","clear_screen","canvas-keyboard-response","128","507143","0.0-11.0-1.58","105","2022-3-23","13:36:43","0","18","[""Asian"",""White""]","No","Female","1311493","","","","","","","","267","57","140","33","33","",""
"3055","7","rating","canvas-keyboard-response","129","510211","0.0-11.0-0.59","105","2022-3-23","13:36:43","0","18","[""Asian"",""White""]","No","Female","1311493","","","","","","","","53","85","113","10","17","1",""
"null","null","clear_screen","canvas-keyboard-response","130","510471","0.0-11.0-1.59","105","2022-3-23","13:36:43","0","18","[""Asian"",""White""]","No","Female","1311493","","","","","","","","53","85","113","10","17","",""
"3055","8","rating","canvas-keyboard-response","131","513540","0.0-11.0-0.60","105","2022-3-23","13:36:43","0","18","[""Asian"",""White""]","No","Female","1311493","","","","","","","","285","113","140","33","40","0",""
"null","null","clear_screen","canvas-keyboard-response","132","513803","0.0-11.0-1.60","105","2022-3-23","13:36:43","0","18","[""Asian"",""White""]","No","Female","1311493","","","","","","","","285","113","140","33","40","",""
"3853","1","rating","canvas-keyboard-response","133","517667","0.0-11.0-0.61","105","2022-3-23","13:36:43","0","18","[""Asian"",""White""]","No","Female","1311493","","","","","","","","106","140","30","10","40","0",""
"null","null","clear_screen","canvas-keyboard-response","134","517928","0.0-11.0-1.61","105","2022-3-23","13:36:43","0","18","[""Asian"",""White""]","No","Female","1311493","","","","","","","","106","140","30","10","40","",""
"3128","1","rating","canvas-keyboard-response","135","521068","0.0-11.0-0.62","105","2022-3-23","13:36:43","0","18","[""Asian"",""White""]","No","Female","1311493","","","","","","","","86","113","30","10","40","1",""
"null","null","clear_screen","canvas-keyboard-response","136","521330","0.0-11.0-1.62","105","2022-3-23","13:36:43","0","18","[""Asian"",""White""]","No","Female","1311493","","","","","","","","86","113","30","10","40","",""
"5703","5","rating","canvas-keyboard-response","137","527044","0.0-11.0-0.63","105","2022-3-23","13:36:43","0","18","[""Asian"",""White""]","No","Female","1311493","","","","","","","","35","57","85","10","25","1",""
"null","null","clear_screen","canvas-keyboard-response","138","527303","0.0-11.0-1.63","105","2022-3-23","13:36:43","0","18","[""Asian"",""White""]","No","Female","1311493","","","","","","","","35","57","85","10","25","",""
"3357","7","rating","canvas-keyboard-response","139","530675","0.0-11.0-0.64","105","2022-3-23","13:36:43","0","18","[""Asian"",""White""]","No","Female","1311493","","","","","","","","169","113","113","17","25","1",""
"null","null","clear_screen","canvas-keyboard-response","140","530934","0.0-11.0-1.64","105","2022-3-23","13:36:43","0","18","[""Asian"",""White""]","No","Female","1311493","","","","","","","","169","113","113","17","25","",""
"1577","7","rating","canvas-keyboard-response","141","532523","0.0-11.0-0.65","105","2022-3-23","13:36:43","0","18","[""Asian"",""White""]","No","Female","1311493","","","","","","","","173","113","85","17","33","1",""
"null","null","clear_screen","canvas-keyboard-response","142","532783","0.0-11.0-1.65","105","2022-3-23","13:36:43","0","18","[""Asian"",""White""]","No","Female","1311493","","","","","","","","173","113","85","17","33","",""
"3789","6","rating","canvas-keyboard-response","143","536585","0.0-11.0-0.66","105","2022-3-23","13:36:43","0","18","[""Asian"",""White""]","No","Female","1311493","","","","","","","","148","85","113","17","17","0",""
"null","null","clear_screen","canvas-keyboard-response","144","536841","0.0-11.0-1.66","105","2022-3-23","13:36:43","0","18","[""Asian"",""White""]","No","Female","1311493","","","","","","","","148","85","113","17","17","",""
"2263","6","rating","canvas-keyboard-response","145","539115","0.0-11.0-0.67","105","2022-3-23","13:36:43","0","18","[""Asian"",""White""]","No","Female","1311493","","","","","","","","57","85","85","10","25","1",""
"null","null","clear_screen","canvas-keyboard-response","146","539375","0.0-11.0-1.67","105","2022-3-23","13:36:43","0","18","[""Asian"",""White""]","No","Female","1311493","","","","","","","","57","85","85","10","25","",""
"3655","9","rating","canvas-keyboard-response","147","543043","0.0-11.0-0.68","105","2022-3-23","13:36:43","0","18","[""Asian"",""White""]","No","Female","1311493","","","","","","","","115","30","30","17","25","1",""
"null","null","clear_screen","canvas-keyboard-response","148","543303","0.0-11.0-1.68","105","2022-3-23","13:36:43","0","18","[""Asian"",""White""]","No","Female","1311493","","","","","","","","115","30","30","17","25","",""
"2368","8","rating","canvas-keyboard-response","149","545684","0.0-11.0-0.69","105","2022-3-23","13:36:43","0","18","[""Asian"",""White""]","No","Female","1311493","","","","","","","","95","140","140","10","17","0",""
"null","null","clear_screen","canvas-keyboard-response","150","545943","0.0-11.0-1.69","105","2022-3-23","13:36:43","0","18","[""Asian"",""White""]","No","Female","1311493","","","","","","","","95","140","140","10","17","",""
"2951","7","rating","canvas-keyboard-response","151","548907","0.0-11.0-0.70","105","2022-3-23","13:36:43","0","18","[""Asian"",""White""]","No","Female","1311493","","","","","","","","138","57","30","17","33","1",""
"null","null","clear_screen","canvas-keyboard-response","152","549167","0.0-11.0-1.70","105","2022-3-23","13:36:43","0","18","[""Asian"",""White""]","No","Female","1311493","","","","","","","","138","57","30","17","33","",""
"3656","9","rating","canvas-keyboard-response","153","552835","0.0-11.0-0.71","105","2022-3-23","13:36:43","0","18","[""Asian"",""White""]","No","Female","1311493","","","","","","","","70","113","140","10","10","1",""
"null","null","clear_screen","canvas-keyboard-response","154","553098","0.0-11.0-1.71","105","2022-3-23","13:36:43","0","18","[""Asian"",""White""]","No","Female","1311493","","","","","","","","70","113","140","10","10","",""
"4347","5","rating","canvas-keyboard-response","155","557459","0.0-11.0-0.72","105","2022-3-23","13:36:43","0","18","[""Asian"",""White""]","No","Female","1311493","","","","","","","","103","140","85","10","33","1",""
"null","null","clear_screen","canvas-keyboard-response","156","557719","0.0-11.0-1.72","105","2022-3-23","13:36:43","0","18","[""Asian"",""White""]","No","Female","1311493","","","","","","","","103","140","85","10","33","",""
"6016","4","rating","canvas-keyboard-response","157","563747","0.0-11.0-0.73","105","2022-3-23","13:36:43","0","18","[""Asian"",""White""]","No","Female","1311493","","","","","","","","229","85","140","25","33","1",""
"null","null","clear_screen","canvas-keyboard-response","158","564010","0.0-11.0-1.73","105","2022-3-23","13:36:43","0","18","[""Asian"",""White""]","No","Female","1311493","","","","","","","","229","85","140","25","33","",""
"1431","4","rating","canvas-keyboard-response","159","565451","0.0-11.0-0.74","105","2022-3-23","13:36:43","0","18","[""Asian"",""White""]","No","Female","1311493","","","","","","","","187","140","57","17","33","0",""
"null","null","clear_screen","canvas-keyboard-response","160","565711","0.0-11.0-1.74","105","2022-3-23","13:36:43","0","18","[""Asian"",""White""]","No","Female","1311493","","","","","","","","187","140","57","17","33","",""
"5002","5","rating","canvas-keyboard-response","161","570725","0.0-11.0-0.75","105","2022-3-23","13:36:43","0","18","[""Asian"",""White""]","No","Female","1311493","","","","","","","","136","57","113","17","25","1",""
"null","null","clear_screen","canvas-keyboard-response","162","570987","0.0-11.0-1.75","105","2022-3-23","13:36:43","0","18","[""Asian"",""White""]","No","Female","1311493","","","","","","","","136","57","113","17","25","",""
"3851","6","rating","canvas-keyboard-response","163","574852","0.0-11.0-0.76","105","2022-3-23","13:36:43","0","18","[""Asian"",""White""]","No","Female","1311493","","","","","","","","273","85","113","33","33","0",""
"null","null","clear_screen","canvas-keyboard-response","164","575113","0.0-11.0-1.76","105","2022-3-23","13:36:43","0","18","[""Asian"",""White""]","No","Female","1311493","","","","","","","","273","85","113","33","33","",""
"1883","6","rating","canvas-keyboard-response","165","577012","0.0-11.0-0.77","105","2022-3-23","13:36:43","0","18","[""Asian"",""White""]","No","Female","1311493","","","","","","","","268","57","30","33","40","1",""
"null","null","clear_screen","canvas-keyboard-response","166","577272","0.0-11.0-1.77","105","2022-3-23","13:36:43","0","18","[""Asian"",""White""]","No","Female","1311493","","","","","","","","268","57","30","33","40","",""
"1950","2","rating","canvas-keyboard-response","167","579236","0.0-11.0-0.78","105","2022-3-23","13:36:43","0","18","[""Asian"",""White""]","No","Female","1311493","","","","","","","","81","113","30","10","33","0",""
"null","null","clear_screen","canvas-keyboard-response","168","579498","0.0-11.0-1.78","105","2022-3-23","13:36:43","0","18","[""Asian"",""White""]","No","Female","1311493","","","","","","","","81","113","30","10","33","",""
"2652","6","rating","canvas-keyboard-response","169","582164","0.0-11.0-0.79","105","2022-3-23","13:36:43","0","18","[""Asian"",""White""]","No","Female","1311493","","","","","","","","271","57","113","33","40","0",""
"null","null","clear_screen","canvas-keyboard-response","170","582424","0.0-11.0-1.79","105","2022-3-23","13:36:43","0","18","[""Asian"",""White""]","No","Female","1311493","","","","","","","","271","57","113","33","40","",""
"2057","8","rating","canvas-keyboard-response","171","584492","0.0-11.0-0.80","105","2022-3-23","13:36:43","0","18","[""Asian"",""White""]","No","Female","1311493","","","","","","","","289","140","113","33","40","0",""
"null","null","clear_screen","canvas-keyboard-response","172","584752","0.0-11.0-1.80","105","2022-3-23","13:36:43","0","18","[""Asian"",""White""]","No","Female","1311493","","","","","","","","289","140","113","33","40","",""
"2315","9","rating","canvas-keyboard-response","173","587084","0.0-11.0-0.81","105","2022-3-23","13:36:43","0","18","[""Asian"",""White""]","No","Female","1311493","","","","","","","","290","140","140","33","40","0",""
"null","null","clear_screen","canvas-keyboard-response","174","587346","0.0-11.0-1.81","105","2022-3-23","13:36:43","0","18","[""Asian"",""White""]","No","Female","1311493","","","","","","","","290","140","140","33","40","",""
"3438","7","rating","canvas-keyboard-response","175","590795","0.0-11.0-0.82","105","2022-3-23","13:36:43","0","18","[""Asian"",""White""]","No","Female","1311493","","","","","","","","29","57","57","10","17","1",""
"null","null","clear_screen","canvas-keyboard-response","176","591055","0.0-11.0-1.82","105","2022-3-23","13:36:43","0","18","[""Asian"",""White""]","No","Female","1311493","","","","","","","","29","57","57","10","17","",""
"5701","1","rating","canvas-keyboard-response","177","596771","0.0-11.0-0.83","105","2022-3-23","13:36:43","0","18","[""Asian"",""White""]","No","Female","1311493","","","","","","","","23","30","113","10","40","0",""
"null","null","clear_screen","canvas-keyboard-response","178","597031","0.0-11.0-1.83","105","2022-3-23","13:36:43","0","18","[""Asian"",""White""]","No","Female","1311493","","","","","","","","23","30","113","10","40","",""
"2133","2","rating","canvas-keyboard-response","179","599179","0.0-11.0-0.84","105","2022-3-23","13:36:43","0","18","[""Asian"",""White""]","No","Female","1311493","","","","","","","","232","85","85","25","40","0",""
"null","null","clear_screen","canvas-keyboard-response","180","599440","0.0-11.0-1.84","105","2022-3-23","13:36:43","0","18","[""Asian"",""White""]","No","Female","1311493","","","","","","","","232","85","85","25","40","",""
"3596","8","rating","canvas-keyboard-response","181","603051","0.0-11.0-0.85","105","2022-3-23","13:36:43","0","18","[""Asian"",""White""]","No","Female","1311493","","","","","","","","94","140","113","10","17","0",""
"null","null","clear_screen","canvas-keyboard-response","182","603312","0.0-11.0-1.85","105","2022-3-23","13:36:43","0","18","[""Asian"",""White""]","No","Female","1311493","","","","","","","","94","140","113","10","17","",""
"1799","8","rating","canvas-keyboard-response","183","605124","0.0-11.0-0.86","105","2022-3-23","13:36:43","0","18","[""Asian"",""White""]","No","Female","1311493","","","","","","","","52","85","85","10","17","1",""
"null","null","clear_screen","canvas-keyboard-response","184","605384","0.0-11.0-1.86","105","2022-3-23","13:36:43","0","18","[""Asian"",""White""]","No","Female","1311493","","","","","","","","52","85","85","10","17","",""
"2592","7","rating","canvas-keyboard-response","185","607988","0.0-11.0-0.87","105","2022-3-23","13:36:43","0","18","[""Asian"",""White""]","No","Female","1311493","","","","","","","","157","85","85","17","33","0",""
"null","null","clear_screen","canvas-keyboard-response","186","608249","0.0-11.0-1.87","105","2022-3-23","13:36:43","0","18","[""Asian"",""White""]","No","Female","1311493","","","","","","","","157","85","85","17","33","",""
"2273","7","rating","canvas-keyboard-response","187","610532","0.0-11.0-0.88","105","2022-3-23","13:36:43","0","18","[""Asian"",""White""]","No","Female","1311493","","","","","","","","201","30","57","25","33","0",""
"null","null","clear_screen","canvas-keyboard-response","188","610792","0.0-11.0-1.88","105","2022-3-23","13:36:43","0","18","[""Asian"",""White""]","No","Female","1311493","","","","","","","","201","30","57","25","33","",""
"2670","8","rating","canvas-keyboard-response","189","613476","0.0-11.0-0.89","105","2022-3-23","13:36:43","0","18","[""Asian"",""White""]","No","Female","1311493","","","","","","","","280","113","140","33","33","1",""
"null","null","clear_screen","canvas-keyboard-response","190","613734","0.0-11.0-1.89","105","2022-3-23","13:36:43","0","18","[""Asian"",""White""]","No","Female","1311493","","","","","","","","280","113","140","33","33","",""
"4127","5","rating","canvas-keyboard-response","191","617875","0.0-11.0-0.90","105","2022-3-23","13:36:43","0","18","[""Asian"",""White""]","No","Female","1311493","","","","","","","","167","113","57","17","25","0",""
"null","null","clear_screen","canvas-keyboard-response","192","618134","0.0-11.0-1.90","105","2022-3-23","13:36:43","0","18","[""Asian"",""White""]","No","Female","1311493","","","","","","","","167","113","57","17","25","",""
"4496","7","rating","canvas-keyboard-response","193","622644","0.0-11.0-0.91","105","2022-3-23","13:36:43","0","18","[""Asian"",""White""]","No","Female","1311493","","","","","","","","196","30","57","25","25","1",""
"null","null","clear_screen","canvas-keyboard-response","194","622904","0.0-11.0-1.91","105","2022-3-23","13:36:43","0","18","[""Asian"",""White""]","No","Female","1311493","","","","","","","","196","30","57","25","25","",""
"2423","3","rating","canvas-keyboard-response","195","625339","0.0-11.0-0.92","105","2022-3-23","13:36:43","0","18","[""Asian"",""White""]","No","Female","1311493","","","","","","","","93","140","85","10","17","1",""
"null","null","clear_screen","canvas-keyboard-response","196","625598","0.0-11.0-1.92","105","2022-3-23","13:36:43","0","18","[""Asian"",""White""]","No","Female","1311493","","","","","","","","93","140","85","10","17","",""
"4375","6","rating","canvas-keyboard-response","197","629987","0.0-11.0-0.93","105","2022-3-23","13:36:43","0","18","[""Asian"",""White""]","No","Female","1311493","","","","","","","","284","113","113","33","40","1",""
"null","null","clear_screen","canvas-keyboard-response","198","630250","0.0-11.0-1.93","105","2022-3-23","13:36:43","0","18","[""Asian"",""White""]","No","Female","1311493","","","","","","","","284","113","113","33","40","",""
"2396","6","rating","canvas-keyboard-response","199","632660","0.0-11.0-0.94","105","2022-3-23","13:36:43","0","18","[""Asian"",""White""]","No","Female","1311493","","","","","","","","48","85","113","10","10","1",""
"null","null","clear_screen","canvas-keyboard-response","200","632920","0.0-11.0-1.94","105","2022-3-23","13:36:43","0","18","[""Asian"",""White""]","No","Female","1311493","","","","","","","","48","85","113","10","10","",""
"1887","5","rating","canvas-keyboard-response","201","634819","0.0-11.0-0.95","105","2022-3-23","13:36:43","0","18","[""Asian"",""White""]","No","Female","1311493","","","","","","","","279","85","140","33","40","0",""
"null","null","clear_screen","canvas-keyboard-response","202","635079","0.0-11.0-1.95","105","2022-3-23","13:36:43","0","18","[""Asian"",""White""]","No","Female","1311493","","","","","","","","279","85","140","33","40","",""
"3345","4","rating","canvas-keyboard-response","203","638436","0.0-11.0-0.96","105","2022-3-23","13:36:43","0","18","[""Asian"",""White""]","No","Female","1311493","","","","","","","","166","113","30","17","25","0",""
"null","null","clear_screen","canvas-keyboard-response","204","638695","0.0-11.0-1.96","105","2022-3-23","13:36:43","0","18","[""Asian"",""White""]","No","Female","1311493","","","","","","","","166","113","30","17","25","",""
"4386","2","rating","canvas-keyboard-response","205","643091","0.0-11.0-0.97","105","2022-3-23","13:36:43","0","18","[""Asian"",""White""]","No","Female","1311493","","","","","","","","37","57","140","10","25","0",""
"null","null","clear_screen","canvas-keyboard-response","206","643355","0.0-11.0-1.97","105","2022-3-23","13:36:43","0","18","[""Asian"",""White""]","No","Female","1311493","","","","","","","","37","57","140","10","25","",""
"3658","4","rating","canvas-keyboard-response","207","647027","0.0-11.0-0.98","105","2022-3-23","13:36:43","0","18","[""Asian"",""White""]","No","Female","1311493","","","","","","","","140","57","85","17","33","0",""
"null","null","clear_screen","canvas-keyboard-response","208","647286","0.0-11.0-1.98","105","2022-3-23","13:36:43","0","18","[""Asian"",""White""]","No","Female","1311493","","","","","","","","140","57","85","17","33","",""
"3850","4","rating","canvas-keyboard-response","209","651147","0.0-11.0-0.99","105","2022-3-23","13:36:43","0","18","[""Asian"",""White""]","No","Female","1311493","","","","","","","","90","113","140","10","40","0",""
"null","null","clear_screen","canvas-keyboard-response","210","651407","0.0-11.0-1.99","105","2022-3-23","13:36:43","0","18","[""Asian"",""White""]","No","Female","1311493","","","","","","","","90","113","140","10","40","",""
"5969","3","rating","canvas-keyboard-response","211","657388","0.0-11.0-0.100","105","2022-3-23","13:36:43","0","18","[""Asian"",""White""]","No","Female","1311493","","","","","","","","46","57","113","10","40","1",""
"null","null","clear_screen","canvas-keyboard-response","212","657647","0.0-11.0-1.100","105","2022-3-23","13:36:43","0","18","[""Asian"",""White""]","No","Female","1311493","","","","","","","","46","57","113","10","40","",""
"2481","2","rating","canvas-keyboard-response","213","660140","0.0-11.0-0.101","105","2022-3-23","13:36:43","0","18","[""Asian"",""White""]","No","Female","1311493","","","","","","","","129","30","140","17","40","0",""
"null","null","clear_screen","canvas-keyboard-response","214","660400","0.0-11.0-1.101","105","2022-3-23","13:36:43","0","18","[""Asian"",""White""]","No","Female","1311493","","","","","","","","129","30","140","17","40","",""
"2914","5","rating","canvas-keyboard-response","215","663324","0.0-11.0-0.102","105","2022-3-23","13:36:43","0","18","[""Asian"",""White""]","No","Female","1311493","","","","","","","","78","113","85","10","25","0",""
"null","null","clear_screen","canvas-keyboard-response","216","663582","0.0-11.0-1.102","105","2022-3-23","13:36:43","0","18","[""Asian"",""White""]","No","Female","1311493","","","","","","","","78","113","85","10","25","",""
"3666","4","rating","canvas-keyboard-response","217","667260","0.0-11.0-0.103","105","2022-3-23","13:36:43","0","18","[""Asian"",""White""]","No","Female","1311493","","","","","","","","164","85","140","17","40","1",""
"null","null","clear_screen","canvas-keyboard-response","218","667522","0.0-11.0-1.103","105","2022-3-23","13:36:43","0","18","[""Asian"",""White""]","No","Female","1311493","","","","","","","","164","85","140","17","40","",""
"1819","4","rating","canvas-keyboard-response","219","669355","0.0-11.0-0.104","105","2022-3-23","13:36:43","0","18","[""Asian"",""White""]","No","Female","1311493","","","","","","","","39","57","57","10","33","0",""
"null","null","clear_screen","canvas-keyboard-response","220","669618","0.0-11.0-1.104","105","2022-3-23","13:36:43","0","18","[""Asian"",""White""]","No","Female","1311493","","","","","","","","39","57","57","10","33","",""
"3995","6","rating","canvas-keyboard-response","221","673627","0.0-11.0-0.105","105","2022-3-23","13:36:43","0","18","[""Asian"",""White""]","No","Female","1311493","","","","","","","","299","85","140","40","40","0",""
"null","null","clear_screen","canvas-keyboard-response","222","673890","0.0-11.0-1.105","105","2022-3-23","13:36:43","0","18","[""Asian"",""White""]","No","Female","1311493","","","","","","","","299","85","140","40","40","",""
"2574","6","rating","canvas-keyboard-response","223","676475","0.0-11.0-0.106","105","2022-3-23","13:36:43","0","18","[""Asian"",""White""]","No","Female","1311493","","","","","","","","248","140","85","25","33","0",""
"null","null","clear_screen","canvas-keyboard-response","224","676738","0.0-11.0-1.106","105","2022-3-23","13:36:43","0","18","[""Asian"",""White""]","No","Female","1311493","","","","","","","","248","140","85","25","33","",""
"3780","4","rating","canvas-keyboard-response","225","680532","0.0-11.0-0.107","105","2022-3-23","13:36:43","0","18","[""Asian"",""White""]","No","Female","1311493","","","","","","","","110","140","140","10","40","1",""
"null","null","clear_screen","canvas-keyboard-response","226","680791","0.0-11.0-1.107","105","2022-3-23","13:36:43","0","18","[""Asian"",""White""]","No","Female","1311493","","","","","","","","110","140","140","10","40","",""
"3015","5","rating","canvas-keyboard-response","227","683820","0.0-11.0-0.108","105","2022-3-23","13:36:43","0","18","[""Asian"",""White""]","No","Female","1311493","","","","","","","","154","85","140","17","25","1",""
"null","null","clear_screen","canvas-keyboard-response","228","684079","0.0-11.0-1.108","105","2022-3-23","13:36:43","0","18","[""Asian"",""White""]","No","Female","1311493","","","","","","","","154","85","140","17","25","",""
"4453","4","rating","canvas-keyboard-response","229","688548","0.0-11.0-0.109","105","2022-3-23","13:36:43","0","18","[""Asian"",""White""]","No","Female","1311493","","","","","","","","118","30","113","17","25","1",""
"null","null","clear_screen","canvas-keyboard-response","230","688810","0.0-11.0-1.109","105","2022-3-23","13:36:43","0","18","[""Asian"",""White""]","No","Female","1311493","","","","","","","","118","30","113","17","25","",""
"2406","2","rating","canvas-keyboard-response","231","691227","0.0-11.0-0.110","105","2022-3-23","13:36:43","0","18","[""Asian"",""White""]","No","Female","1311493","","","","","","","","101","140","30","10","33","1",""
"null","null","clear_screen","canvas-keyboard-response","232","691487","0.0-11.0-1.110","105","2022-3-23","13:36:43","0","18","[""Asian"",""White""]","No","Female","1311493","","","","","","","","101","140","30","10","33","",""
"3463","5","rating","canvas-keyboard-response","233","694964","0.0-11.0-0.111","105","2022-3-23","13:36:43","0","18","[""Asian"",""White""]","No","Female","1311493","","","","","","","","254","140","113","25","40","0",""
"null","null","clear_screen","canvas-keyboard-response","234","695223","0.0-11.0-1.111","105","2022-3-23","13:36:43","0","18","[""Asian"",""White""]","No","Female","1311493","","","","","","","","254","140","113","25","40","",""
"2864","2","rating","canvas-keyboard-response","235","698099","0.0-11.0-0.112","105","2022-3-23","13:36:43","0","18","[""Asian"",""White""]","No","Female","1311493","","","","","","","","59","85","140","10","25","1",""
"null","null","clear_screen","canvas-keyboard-response","236","698359","0.0-11.0-1.112","105","2022-3-23","13:36:43","0","18","[""Asian"",""White""]","No","Female","1311493","","","","","","","","59","85","140","10","25","",""
"2225","6","rating","canvas-keyboard-response","237","700596","0.0-11.0-0.113","105","2022-3-23","13:36:43","0","18","[""Asian"",""White""]","No","Female","1311493","","","","","","","","262","30","85","33","40","0",""
"null","null","clear_screen","canvas-keyboard-response","238","700857","0.0-11.0-1.113","105","2022-3-23","13:36:43","0","18","[""Asian"",""White""]","No","Female","1311493","","","","","","","","262","30","85","33","40","",""
"2922","6","rating","canvas-keyboard-response","239","703794","0.0-11.0-0.114","105","2022-3-23","13:36:43","0","18","[""Asian"",""White""]","No","Female","1311493","","","","","","","","276","85","57","33","40","0",""
"null","null","clear_screen","canvas-keyboard-response","240","704053","0.0-11.0-1.114","105","2022-3-23","13:36:43","0","18","[""Asian"",""White""]","No","Female","1311493","","","","","","","","276","85","57","33","40","",""
"2087","5","rating","canvas-keyboard-response","241","706155","0.0-11.0-0.115","105","2022-3-23","13:36:43","0","18","[""Asian"",""White""]","No","Female","1311493","","","","","","","","256","30","57","33","33","1",""
"null","null","clear_screen","canvas-keyboard-response","242","706415","0.0-11.0-1.115","105","2022-3-23","13:36:43","0","18","[""Asian"",""White""]","No","Female","1311493","","","","","","","","256","30","57","33","33","",""
"4473","6","rating","canvas-keyboard-response","243","710899","0.0-11.0-0.116","105","2022-3-23","13:36:43","0","18","[""Asian"",""White""]","No","Female","1311493","","","","","","","","156","85","57","17","33","0",""
"null","null","clear_screen","canvas-keyboard-response","244","711163","0.0-11.0-1.116","105","2022-3-23","13:36:43","0","18","[""Asian"",""White""]","No","Female","1311493","","","","","","","","156","85","57","17","33","",""
"2236","2","rating","canvas-keyboard-response","245","713412","0.0-11.0-0.117","105","2022-3-23","13:36:43","0","18","[""Asian"",""White""]","No","Female","1311493","","","","","","","","102","140","57","10","33","0",""
"null","null","clear_screen","canvas-keyboard-response","246","713670","0.0-11.0-1.117","105","2022-3-23","13:36:43","0","18","[""Asian"",""White""]","No","Female","1311493","","","","","","","","102","140","57","10","33","",""
"3510","2","rating","canvas-keyboard-response","247","717195","0.0-11.0-0.118","105","2022-3-23","13:36:43","0","18","[""Asian"",""White""]","No","Female","1311493","","","","","","","","4","30","140","10","10","0",""
"null","null","clear_screen","canvas-keyboard-response","248","717458","0.0-11.0-1.118","105","2022-3-23","13:36:43","0","18","[""Asian"",""White""]","No","Female","1311493","","","","","","","","4","30","140","10","10","",""
"4323","5","rating","canvas-keyboard-response","249","721795","0.0-11.0-0.119","105","2022-3-23","13:36:43","0","18","[""Asian"",""White""]","No","Female","1311493","","","","","","","","178","113","85","17","40","0",""
"null","null","clear_screen","canvas-keyboard-response","250","722057","0.0-11.0-1.119","105","2022-3-23","13:36:43","0","18","[""Asian"",""White""]","No","Female","1311493","","","","","","","","178","113","85","17","40","",""
"3943","6","rating","canvas-keyboard-response","251","726011","0.0-11.0-0.120","105","2022-3-23","13:36:43","0","18","[""Asian"",""White""]","No","Female","1311493","","","","","","","","139","57","57","17","33","1",""
"null","null","clear_screen","canvas-keyboard-response","252","726272","0.0-11.0-1.120","105","2022-3-23","13:36:43","0","18","[""Asian"",""White""]","No","Female","1311493","","","","","","","","139","57","57","17","33","",""
"2635","7","rating","canvas-keyboard-response","253","728923","0.0-11.0-0.121","105","2022-3-23","13:36:43","0","18","[""Asian"",""White""]","No","Female","1311493","","","","","","","","233","85","113","25","40","0",""
"null","null","clear_screen","canvas-keyboard-response","254","729183","0.0-11.0-1.121","105","2022-3-23","13:36:43","0","18","[""Asian"",""White""]","No","Female","1311493","","","","","","","","233","85","113","25","40","",""
"2407","8","rating","canvas-keyboard-response","255","731603","0.0-11.0-0.122","105","2022-3-23","13:36:43","0","18","[""Asian"",""White""]","No","Female","1311493","","","","","","","","295","57","85","40","40","0",""
"null","null","clear_screen","canvas-keyboard-response","256","731865","0.0-11.0-1.122","105","2022-3-23","13:36:43","0","18","[""Asian"",""White""]","No","Female","1311493","","","","","","","","295","57","85","40","40","",""
"3782","3","rating","canvas-keyboard-response","257","735659","0.0-11.0-0.123","105","2022-3-23","13:36:43","0","18","[""Asian"",""White""]","No","Female","1311493","","","","","","","","41","57","113","10","33","0",""
"null","null","clear_screen","canvas-keyboard-response","258","735921","0.0-11.0-1.123","105","2022-3-23","13:36:43","0","18","[""Asian"",""White""]","No","Female","1311493","","","","","","","","41","57","113","10","33","",""
"4353","2","rating","canvas-keyboard-response","259","740283","0.0-11.0-0.124","105","2022-3-23","13:36:43","0","18","[""Asian"",""White""]","No","Female","1311493","","","","","","","","192","140","57","17","40","1",""
"null","null","clear_screen","canvas-keyboard-response","260","740547","0.0-11.0-1.124","105","2022-3-23","13:36:43","0","18","[""Asian"",""White""]","No","Female","1311493","","","","","","","","192","140","57","17","40","",""
"3986","6","rating","canvas-keyboard-response","261","744547","0.0-11.0-0.125","105","2022-3-23","13:36:43","0","18","[""Asian"",""White""]","No","Female","1311493","","","","","","","","105","140","140","10","33","0",""
"null","null","clear_screen","canvas-keyboard-response","262","744809","0.0-11.0-1.125","105","2022-3-23","13:36:43","0","18","[""Asian"",""White""]","No","Female","1311493","","","","","","","","105","140","140","10","33","",""
"6391","7","rating","canvas-keyboard-response","263","751211","0.0-11.0-0.126","105","2022-3-23","13:36:43","0","18","[""Asian"",""White""]","No","Female","1311493","","","","","","","","151","85","57","17","25","1",""
"null","null","clear_screen","canvas-keyboard-response","264","751470","0.0-11.0-1.126","105","2022-3-23","13:36:43","0","18","[""Asian"",""White""]","No","Female","1311493","","","","","","","","151","85","57","17","25","",""
"3591","3","rating","canvas-keyboard-response","265","755076","0.0-11.0-0.127","105","2022-3-23","13:36:43","0","18","[""Asian"",""White""]","No","Female","1311493","","","","","","","","22","30","85","10","40","1",""
"null","null","clear_screen","canvas-keyboard-response","266","755338","0.0-11.0-1.127","105","2022-3-23","13:36:43","0","18","[""Asian"",""White""]","No","Female","1311493","","","","","","","","22","30","85","10","40","",""
"3022","7","rating","canvas-keyboard-response","267","758372","0.0-11.0-0.128","105","2022-3-23","13:36:43","0","18","[""Asian"",""White""]","No","Female","1311493","","","","","","","","205","30","30","25","40","0",""
"null","null","clear_screen","canvas-keyboard-response","268","758632","0.0-11.0-1.128","105","2022-3-23","13:36:43","0","18","[""Asian"",""White""]","No","Female","1311493","","","","","","","","205","30","30","25","40","",""
"4497","2","rating","canvas-keyboard-response","269","763140","0.0-11.0-0.129","105","2022-3-23","13:36:43","0","18","[""Asian"",""White""]","No","Female","1311493","","","","","","","","91","140","30","10","17","1",""
"null","null","clear_screen","canvas-keyboard-response","270","763400","0.0-11.0-1.129","105","2022-3-23","13:36:43","0","18","[""Asian"",""White""]","No","Female","1311493","","","","","","","","91","140","30","10","17","",""
"3045","3","rating","canvas-keyboard-response","271","766459","0.0-11.0-0.130","105","2022-3-23","13:36:43","0","18","[""Asian"",""White""]","No","Female","1311493","","","","","","","","123","30","113","17","33","0",""
"null","null","clear_screen","canvas-keyboard-response","272","766723","0.0-11.0-1.130","105","2022-3-23","13:36:43","0","18","[""Asian"",""White""]","No","Female","1311493","","","","","","","","123","30","113","17","33","",""
"2880","3","rating","canvas-keyboard-response","273","769611","0.0-11.0-0.131","105","2022-3-23","13:36:43","0","18","[""Asian"",""White""]","No","Female","1311493","","","","","","","","114","30","140","17","17","0",""
"null","null","clear_screen","canvas-keyboard-response","274","769874","0.0-11.0-1.131","105","2022-3-23","13:36:43","0","18","[""Asian"",""White""]","No","Female","1311493","","","","","","","","114","30","140","17","17","",""
"2910","6","rating","canvas-keyboard-response","275","772795","0.0-11.0-0.132","105","2022-3-23","13:36:43","0","18","[""Asian"",""White""]","No","Female","1311493","","","","","","","","104","140","113","10","33","1",""
"null","null","clear_screen","canvas-keyboard-response","276","773058","0.0-11.0-1.132","105","2022-3-23","13:36:43","0","18","[""Asian"",""White""]","No","Female","1311493","","","","","","","","104","140","113","10","33","",""
"6323","1","rating","canvas-keyboard-response","277","779395","0.0-11.0-0.133","105","2022-3-23","13:36:43","0","18","[""Asian"",""White""]","No","Female","1311493","","","","","","","","71","113","30","10","17","1",""
"null","null","clear_screen","canvas-keyboard-response","278","779655","0.0-11.0-1.133","105","2022-3-23","13:36:43","0","18","[""Asian"",""White""]","No","Female","1311493","","","","","","","","71","113","30","10","17","",""
"3410","3","rating","canvas-keyboard-response","279","783075","0.0-11.0-0.134","105","2022-3-23","13:36:43","0","18","[""Asian"",""White""]","No","Female","1311493","","","","","","","","182","140","57","17","25","0",""
"null","null","clear_screen","canvas-keyboard-response","280","783335","0.0-11.0-1.134","105","2022-3-23","13:36:43","0","18","[""Asian"",""White""]","No","Female","1311493","","","","","","","","182","140","57","17","25","",""
"2242","6","rating","canvas-keyboard-response","281","785588","0.0-11.0-0.135","105","2022-3-23","13:36:43","0","18","[""Asian"",""White""]","No","Female","1311493","","","","","","","","282","113","57","33","40","0",""
"null","null","clear_screen","canvas-keyboard-response","282","785849","0.0-11.0-1.135","105","2022-3-23","13:36:43","0","18","[""Asian"",""White""]","No","Female","1311493","","","","","","","","282","113","57","33","40","",""
"3272","4","rating","canvas-keyboard-response","283","789132","0.0-11.0-0.136","105","2022-3-23","13:36:43","0","18","[""Asian"",""White""]","No","Female","1311493","","","","","","","","217","57","140","25","33","1",""
"null","null","clear_screen","canvas-keyboard-response","284","789394","0.0-11.0-1.136","105","2022-3-23","13:36:43","0","18","[""Asian"",""White""]","No","Female","1311493","","","","","","","","217","57","140","25","33","",""
"2133","4","rating","canvas-keyboard-response","285","791540","0.0-11.0-0.137","105","2022-3-23","13:36:43","0","18","[""Asian"",""White""]","No","Female","1311493","","","","","","","","68","85","113","10","40","1",""
"null","null","clear_screen","canvas-keyboard-response","286","791801","0.0-11.0-1.137","105","2022-3-23","13:36:43","0","18","[""Asian"",""White""]","No","Female","1311493","","","","","","","","68","85","113","10","40","",""
"5268","8","rating","canvas-keyboard-response","287","797084","0.0-11.0-0.138","105","2022-3-23","13:36:43","0","18","[""Asian"",""White""]","No","Female","1311493","","","","","","","","265","57","85","33","33","1",""
"null","null","clear_screen","canvas-keyboard-response","288","797347","0.0-11.0-1.138","105","2022-3-23","13:36:43","0","18","[""Asian"",""White""]","No","Female","1311493","","","","","","","","265","57","85","33","33","",""
"3943","7","rating","canvas-keyboard-response","289","801300","0.0-11.0-0.139","105","2022-3-23","13:36:43","0","18","[""Asian"",""White""]","No","Female","1311493","","","","","","","","28","57","30","10","17","1",""
"null","null","clear_screen","canvas-keyboard-response","290","801560","0.0-11.0-1.139","105","2022-3-23","13:36:43","0","18","[""Asian"",""White""]","No","Female","1311493","","","","","","","","28","57","30","10","17","",""
"3374","9","rating","canvas-keyboard-response","291","804948","0.0-11.0-0.140","105","2022-3-23","13:36:43","0","18","[""Asian"",""White""]","No","Female","1311493","","","","","","","","277","85","85","33","40","1",""
"null","null","clear_screen","canvas-keyboard-response","292","805207","0.0-11.0-1.140","105","2022-3-23","13:36:43","0","18","[""Asian"",""White""]","No","Female","1311493","","","","","","","","277","85","85","33","40","",""
"2655","8","rating","canvas-keyboard-response","293","807876","0.0-11.0-0.141","105","2022-3-23","13:36:43","0","18","[""Asian"",""White""]","No","Female","1311493","","","","","","","","130","57","85","17","17","1",""
"null","null","clear_screen","canvas-keyboard-response","294","808138","0.0-11.0-1.141","105","2022-3-23","13:36:43","0","18","[""Asian"",""White""]","No","Female","1311493","","","","","","","","130","57","85","17","17","",""
"5125","5","rating","canvas-keyboard-response","295","813275","0.0-11.0-0.142","105","2022-3-23","13:36:43","0","18","[""Asian"",""White""]","No","Female","1311493","","","","","","","","292","30","85","40","40","1",""
"null","null","clear_screen","canvas-keyboard-response","296","813536","0.0-11.0-1.142","105","2022-3-23","13:36:43","0","18","[""Asian"",""White""]","No","Female","1311493","","","","","","","","292","30","85","40","40","",""
"2695","7","rating","canvas-keyboard-response","297","816244","0.0-11.0-0.143","105","2022-3-23","13:36:43","0","18","[""Asian"",""White""]","No","Female","1311493","","","","","","","","261","30","57","33","40","0",""
"null","null","clear_screen","canvas-keyboard-response","298","816504","0.0-11.0-1.143","105","2022-3-23","13:36:43","0","18","[""Asian"",""White""]","No","Female","1311493","","","","","","","","261","30","57","33","40","",""
"1544","7","rating","canvas-keyboard-response","299","818060","0.0-11.0-0.144","105","2022-3-23","13:36:43","0","18","[""Asian"",""White""]","No","Female","1311493","","","","","","","","227","85","85","25","33","1",""
"null","null","clear_screen","canvas-keyboard-response","300","818321","0.0-11.0-1.144","105","2022-3-23","13:36:43","0","18","[""Asian"",""White""]","No","Female","1311493","","","","","","","","227","85","85","25","33","",""
"3929","3","rating","canvas-keyboard-response","301","822260","0.0-11.0-0.145","105","2022-3-23","13:36:43","0","18","[""Asian"",""White""]","No","Female","1311493","","","","","","","","12","30","85","10","25","1",""
"null","null","clear_screen","canvas-keyboard-response","302","822520","0.0-11.0-1.145","105","2022-3-23","13:36:43","0","18","[""Asian"",""White""]","No","Female","1311493","","","","","","","","12","30","85","10","25","",""
"3535","4","rating","canvas-keyboard-response","303","826067","0.0-11.0-0.146","105","2022-3-23","13:36:43","0","18","[""Asian"",""White""]","No","Female","1311493","","","","","","","","87","113","57","10","40","1",""
"null","null","clear_screen","canvas-keyboard-response","304","826327","0.0-11.0-1.146","105","2022-3-23","13:36:43","0","18","[""Asian"",""White""]","No","Female","1311493","","","","","","","","87","113","57","10","40","",""
"1710","3","rating","canvas-keyboard-response","305","828052","0.0-11.0-0.147","105","2022-3-23","13:36:43","0","18","[""Asian"",""White""]","No","Female","1311493","","","","","","","","247","140","57","25","33","0",""
"null","null","clear_screen","canvas-keyboard-response","306","828311","0.0-11.0-1.147","105","2022-3-23","13:36:43","0","18","[""Asian"",""White""]","No","Female","1311493","","","","","","","","247","140","57","25","33","",""
"2753","2","rating","canvas-keyboard-response","307","831076","0.0-11.0-0.148","105","2022-3-23","13:36:43","0","18","[""Asian"",""White""]","No","Female","1311493","","","","","","","","143","57","30","17","40","1",""
"null","null","clear_screen","canvas-keyboard-response","308","831335","0.0-11.0-1.148","105","2022-3-23","13:36:43","0","18","[""Asian"",""White""]","No","Female","1311493","","","","","","","","143","57","30","17","40","",""
"3858","5","rating","canvas-keyboard-response","309","835203","0.0-11.0-0.149","105","2022-3-23","13:36:43","0","18","[""Asian"",""White""]","No","Female","1311493","","","","","","","","219","57","57","25","40","0",""
"null","null","clear_screen","canvas-keyboard-response","310","835466","0.0-11.0-1.149","105","2022-3-23","13:36:43","0","18","[""Asian"",""White""]","No","Female","1311493","","","","","","","","219","57","57","25","40","",""
"3116","3","rating","canvas-keyboard-response","311","838596","0.0-11.0-0.150","105","2022-3-23","13:36:43","0","18","[""Asian"",""White""]","No","Female","1311493","","","","","","","","177","113","57","17","40","1",""
"null","null","clear_screen","canvas-keyboard-response","312","838858","0.0-11.0-1.150","105","2022-3-23","13:36:43","0","18","[""Asian"",""White""]","No","Female","1311493","","","","","","","","177","113","57","17","40","",""
"3483","5","rating","canvas-keyboard-response","313","842356","0.0-11.0-0.151","105","2022-3-23","13:36:43","0","18","[""Asian"",""White""]","No","Female","1311493","","","","","","","","231","85","57","25","40","0",""
"null","null","clear_screen","canvas-keyboard-response","314","842616","0.0-11.0-1.151","105","2022-3-23","13:36:43","0","18","[""Asian"",""White""]","No","Female","1311493","","","","","","","","231","85","57","25","40","",""
"2570","4","rating","canvas-keyboard-response","315","845195","0.0-11.0-0.152","105","2022-3-23","13:36:43","0","18","[""Asian"",""White""]","No","Female","1311493","","","","","","","","266","57","113","33","33","1",""
"null","null","clear_screen","canvas-keyboard-response","316","845455","0.0-11.0-1.152","105","2022-3-23","13:36:43","0","18","[""Asian"",""White""]","No","Female","1311493","","","","","","","","266","57","113","33","33","",""
"1730","3","rating","canvas-keyboard-response","317","847196","0.0-11.0-0.153","105","2022-3-23","13:36:43","0","18","[""Asian"",""White""]","No","Female","1311493","","","","","","","","2","30","85","10","10","1",""
"null","null","clear_screen","canvas-keyboard-response","318","847455","0.0-11.0-1.153","105","2022-3-23","13:36:43","0","18","[""Asian"",""White""]","No","Female","1311493","","","","","","","","2","30","85","10","10","",""
"3066","2","rating","canvas-keyboard-response","319","850532","0.0-11.0-0.154","105","2022-3-23","13:36:43","0","18","[""Asian"",""White""]","No","Female","1311493","","","","","","","","137","57","140","17","25","1",""
"null","null","clear_screen","canvas-keyboard-response","320","850792","0.0-11.0-1.154","105","2022-3-23","13:36:43","0","18","[""Asian"",""White""]","No","Female","1311493","","","","","","","","137","57","140","17","25","",""
"2392","7","rating","canvas-keyboard-response","321","853195","0.0-11.0-0.155","105","2022-3-23","13:36:43","0","18","[""Asian"",""White""]","No","Female","1311493","","","","","","","","283","113","85","33","40","0",""
"null","null","clear_screen","canvas-keyboard-response","322","853456","0.0-11.0-1.155","105","2022-3-23","13:36:43","0","18","[""Asian"",""White""]","No","Female","1311493","","","","","","","","283","113","85","33","40","",""
"1878","8","rating","canvas-keyboard-response","323","855347","0.0-11.0-0.156","105","2022-3-23","13:36:43","0","18","[""Asian"",""White""]","No","Female","1311493","","","","","","","","184","140","113","17","25","0",""
"null","null","clear_screen","canvas-keyboard-response","324","855609","0.0-11.0-1.156","105","2022-3-23","13:36:43","0","18","[""Asian"",""White""]","No","Female","1311493","","","","","","","","184","140","113","17","25","",""
"2033","1","rating","canvas-keyboard-response","325","857651","0.0-11.0-0.157","105","2022-3-23","13:36:43","0","18","[""Asian"",""White""]","No","Female","1311493","","","","","","","","14","30","140","10","25","0",""
"null","null","clear_screen","canvas-keyboard-response","326","857914","0.0-11.0-1.157","105","2022-3-23","13:36:43","0","18","[""Asian"",""White""]","No","Female","1311493","","","","","","","","14","30","140","10","25","",""
"2967","2","rating","canvas-keyboard-response","327","860891","0.0-11.0-0.158","105","2022-3-23","13:36:43","0","18","[""Asian"",""White""]","No","Female","1311493","","","","","","","","160","85","30","17","40","0",""
"null","null","clear_screen","canvas-keyboard-response","328","861154","0.0-11.0-1.158","105","2022-3-23","13:36:43","0","18","[""Asian"",""White""]","No","Female","1311493","","","","","","","","160","85","30","17","40","",""
"5043","3","rating","canvas-keyboard-response","329","866211","0.0-11.0-0.159","105","2022-3-23","13:36:43","0","18","[""Asian"",""White""]","No","Female","1311493","","","","","","","","38","57","30","10","33","1",""
"null","null","clear_screen","canvas-keyboard-response","330","866472","0.0-11.0-1.159","105","2022-3-23","13:36:43","0","18","[""Asian"",""White""]","No","Female","1311493","","","","","","","","38","57","30","10","33","",""
"4270","8","rating","canvas-keyboard-response","331","870755","0.0-11.0-0.160","105","2022-3-23","13:36:43","0","18","[""Asian"",""White""]","No","Female","1311493","","","","","","","","240","113","140","25","33","1",""
"null","null","clear_screen","canvas-keyboard-response","332","871018","0.0-11.0-1.160","105","2022-3-23","13:36:43","0","18","[""Asian"",""White""]","No","Female","1311493","","","","","","","","240","113","140","25","33","",""
"2295","2","rating","canvas-keyboard-response","333","873324","0.0-11.0-0.161","105","2022-3-23","13:36:43","0","18","[""Asian"",""White""]","No","Female","1311493","","","","","","","","121","30","57","17","33","0",""
"null","null","clear_screen","canvas-keyboard-response","334","873587","0.0-11.0-1.161","105","2022-3-23","13:36:43","0","18","[""Asian"",""White""]","No","Female","1311493","","","","","","","","121","30","57","17","33","",""
"2404","9","rating","canvas-keyboard-response","335","876004","0.0-11.0-0.162","105","2022-3-23","13:36:43","0","18","[""Asian"",""White""]","No","Female","1311493","","","","","","","","269","57","57","33","40","0",""
"null","null","clear_screen","canvas-keyboard-response","336","876266","0.0-11.0-1.162","105","2022-3-23","13:36:43","0","18","[""Asian"",""White""]","No","Female","1311493","","","","","","","","269","57","57","33","40","",""
"4126","5","rating","canvas-keyboard-response","337","880404","0.0-11.0-0.163","105","2022-3-23","13:36:43","0","18","[""Asian"",""White""]","No","Female","1311493","","","","","","","","83","113","85","10","33","0",""
"null","null","clear_screen","canvas-keyboard-response","338","880664","0.0-11.0-1.163","105","2022-3-23","13:36:43","0","18","[""Asian"",""White""]","No","Female","1311493","","","","","","","","83","113","85","10","33","",""
"3496","4","rating","canvas-keyboard-response","339","884172","0.0-11.0-0.164","105","2022-3-23","13:36:43","0","18","[""Asian"",""White""]","No","Female","1311493","","","","","","","","21","30","57","10","40","1",""
"null","null","clear_screen","canvas-keyboard-response","340","884432","0.0-11.0-1.164","105","2022-3-23","13:36:43","0","18","[""Asian"",""White""]","No","Female","1311493","","","","","","","","21","30","57","10","40","",""
"2782","7","rating","canvas-keyboard-response","341","887228","0.0-11.0-0.165","105","2022-3-23","13:36:43","0","18","[""Asian"",""White""]","No","Female","1311493","","","","","","","","34","57","57","10","25","1",""
"null","null","clear_screen","canvas-keyboard-response","342","887488","0.0-11.0-1.165","105","2022-3-23","13:36:43","0","18","[""Asian"",""White""]","No","Female","1311493","","","","","","","","34","57","57","10","25","",""
"3784","5","rating","canvas-keyboard-response","343","891283","0.0-11.0-0.166","105","2022-3-23","13:36:43","0","18","[""Asian"",""White""]","No","Female","1311493","","","","","","","","202","30","85","25","33","0",""
"null","null","clear_screen","canvas-keyboard-response","344","891542","0.0-11.0-1.166","105","2022-3-23","13:36:43","0","18","[""Asian"",""White""]","No","Female","1311493","","","","","","","","202","30","85","25","33","",""
"2218","8","rating","canvas-keyboard-response","345","893771","0.0-11.0-0.167","105","2022-3-23","13:36:43","0","18","[""Asian"",""White""]","No","Female","1311493","","","","","","","","244","113","113","25","40","1",""
"null","null","clear_screen","canvas-keyboard-response","346","894031","0.0-11.0-1.167","105","2022-3-23","13:36:43","0","18","[""Asian"",""White""]","No","Female","1311493","","","","","","","","244","113","113","25","40","",""
"3255","7","rating","canvas-keyboard-response","347","897299","0.0-11.0-0.168","105","2022-3-23","13:36:43","0","18","[""Asian"",""White""]","No","Female","1311493","","","","","","","","220","57","85","25","40","0",""
"null","null","clear_screen","canvas-keyboard-response","348","897562","0.0-11.0-1.168","105","2022-3-23","13:36:43","0","18","[""Asian"",""White""]","No","Female","1311493","","","","","","","","220","57","85","25","40","",""
"3950","2","rating","canvas-keyboard-response","349","901524","0.0-11.0-0.169","105","2022-3-23","13:36:43","0","18","[""Asian"",""White""]","No","Female","1311493","","","","","","","","20","30","30","10","40","0",""
"null","null","clear_screen","canvas-keyboard-response","350","901784","0.0-11.0-1.169","105","2022-3-23","13:36:43","0","18","[""Asian"",""White""]","No","Female","1311493","","","","","","","","20","30","30","10","40","",""
"3687","2","rating","canvas-keyboard-response","351","905483","0.0-11.0-0.170","105","2022-3-23","13:36:43","0","18","[""Asian"",""White""]","No","Female","1311493","","","","","","","","203","30","113","25","33","1",""
"null","null","clear_screen","canvas-keyboard-response","352","905744","0.0-11.0-1.170","105","2022-3-23","13:36:43","0","18","[""Asian"",""White""]","No","Female","1311493","","","","","","","","203","30","113","25","33","",""
"3600","5","rating","canvas-keyboard-response","353","909356","0.0-11.0-0.171","105","2022-3-23","13:36:43","0","18","[""Asian"",""White""]","No","Female","1311493","","","","","","","","237","113","57","25","33","1",""
"null","null","clear_screen","canvas-keyboard-response","354","909618","0.0-11.0-1.171","105","2022-3-23","13:36:43","0","18","[""Asian"",""White""]","No","Female","1311493","","","","","","","","237","113","57","25","33","",""
"3087","2","rating","canvas-keyboard-response","355","912716","0.0-11.0-0.172","105","2022-3-23","13:36:43","0","18","[""Asian"",""White""]","No","Female","1311493","","","","","","","","65","85","30","10","40","1",""
"null","null","clear_screen","canvas-keyboard-response","356","912977","0.0-11.0-1.172","105","2022-3-23","13:36:43","0","18","[""Asian"",""White""]","No","Female","1311493","","","","","","","","65","85","30","10","40","",""
"2414","5","rating","canvas-keyboard-response","357","915403","0.0-11.0-0.173","105","2022-3-23","13:36:43","0","18","[""Asian"",""White""]","No","Female","1311493","","","","","","","","79","113","113","10","25","0",""
"null","null","clear_screen","canvas-keyboard-response","358","915663","0.0-11.0-1.173","105","2022-3-23","13:36:43","0","18","[""Asian"",""White""]","No","Female","1311493","","","","","","","","79","113","113","10","25","",""
"1726","3","rating","canvas-keyboard-response","359","917404","0.0-11.0-0.174","105","2022-3-23","13:36:43","0","18","[""Asian"",""White""]","No","Female","1311493","","","","","","","","252","140","57","25","40","1",""
"null","null","clear_screen","canvas-keyboard-response","360","917667","0.0-11.0-1.174","105","2022-3-23","13:36:43","0","18","[""Asian"",""White""]","No","Female","1311493","","","","","","","","252","140","57","25","40","",""
"2963","6","rating","canvas-keyboard-response","361","920643","0.0-11.0-0.175","105","2022-3-23","13:36:43","0","18","[""Asian"",""White""]","No","Female","1311493","","","","","","","","49","85","140","10","10","0",""
"null","null","clear_screen","canvas-keyboard-response","362","920903","0.0-11.0-1.175","105","2022-3-23","13:36:43","0","18","[""Asian"",""White""]","No","Female","1311493","","","","","","","","49","85","140","10","10","",""
"2775","1","rating","canvas-keyboard-response","363","923691","0.0-11.0-0.176","105","2022-3-23","13:36:43","0","18","[""Asian"",""White""]","No","Female","1311493","","","","","","","","96","140","30","10","25","0",""
"null","null","clear_screen","canvas-keyboard-response","364","923952","0.0-11.0-1.176","105","2022-3-23","13:36:43","0","18","[""Asian"",""White""]","No","Female","1311493","","","","","","","","96","140","30","10","25","",""
"2098","1","rating","canvas-keyboard-response","365","926059","0.0-11.0-0.177","105","2022-3-23","13:36:43","0","18","[""Asian"",""White""]","No","Female","1311493","","","","","","","","122","30","85","17","33","0",""
"null","null","clear_screen","canvas-keyboard-response","366","926319","0.0-11.0-1.177","105","2022-3-23","13:36:43","0","18","[""Asian"",""White""]","No","Female","1311493","","","","","","","","122","30","85","17","33","",""
"2912","2","rating","canvas-keyboard-response","367","929243","0.0-11.0-0.178","105","2022-3-23","13:36:43","0","18","[""Asian"",""White""]","No","Female","1311493","","","","","","","","286","140","30","33","40","1",""
"null","null","clear_screen","canvas-keyboard-response","368","929503","0.0-11.0-1.178","105","2022-3-23","13:36:43","0","18","[""Asian"",""White""]","No","Female","1311493","","","","","","","","286","140","30","33","40","",""
"2958","6","rating","canvas-keyboard-response","369","932476","0.0-11.0-0.179","105","2022-3-23","13:36:43","0","18","[""Asian"",""White""]","No","Female","1311493","","","","","","","","210","57","85","25","25","0",""
"null","null","clear_screen","canvas-keyboard-response","370","932735","0.0-11.0-1.179","105","2022-3-23","13:36:43","0","18","[""Asian"",""White""]","No","Female","1311493","","","","","","","","210","57","85","25","25","",""
"2133","2","rating","canvas-keyboard-response","371","934883","0.0-11.0-0.180","105","2022-3-23","13:36:43","0","18","[""Asian"",""White""]","No","Female","1311493","","","","","","","","259","30","140","33","33","0",""
"null","null","clear_screen","canvas-keyboard-response","372","935146","0.0-11.0-1.180","105","2022-3-23","13:36:43","0","18","[""Asian"",""White""]","No","Female","1311493","","","","","","","","259","30","140","33","33","",""
"3131","4","rating","canvas-keyboard-response","373","938293","0.0-11.0-0.181","105","2022-3-23","13:36:43","0","18","[""Asian"",""White""]","No","Female","1311493","","","","","","","","89","113","113","10","40","0",""
"null","null","clear_screen","canvas-keyboard-response","374","938556","0.0-11.0-1.181","105","2022-3-23","13:36:43","0","18","[""Asian"",""White""]","No","Female","1311493","","","","","","","","89","113","113","10","40","",""
"2882","4","rating","canvas-keyboard-response","375","941452","0.0-11.0-0.182","105","2022-3-23","13:36:43","0","18","[""Asian"",""White""]","No","Female","1311493","","","","","","","","109","140","113","10","40","1",""
"null","null","clear_screen","canvas-keyboard-response","376","941716","0.0-11.0-1.182","105","2022-3-23","13:36:43","0","18","[""Asian"",""White""]","No","Female","1311493","","","","","","","","109","140","113","10","40","",""
"3371","8","rating","canvas-keyboard-response","377","945101","0.0-11.0-0.183","105","2022-3-23","13:36:43","0","18","[""Asian"",""White""]","No","Female","1311493","","","","","","","","174","113","113","17","33","0",""
"null","null","clear_screen","canvas-keyboard-response","378","945363","0.0-11.0-1.183","105","2022-3-23","13:36:43","0","18","[""Asian"",""White""]","No","Female","1311493","","","","","","","","174","113","113","17","33","",""
"3862","2","rating","canvas-keyboard-response","379","949236","0.0-11.0-0.184","105","2022-3-23","13:36:43","0","18","[""Asian"",""White""]","No","Female","1311493","","","","","","","","69","85","140","10","40","1",""
"null","null","clear_screen","canvas-keyboard-response","380","949497","0.0-11.0-1.184","105","2022-3-23","13:36:43","0","18","[""Asian"",""White""]","No","Female","1311493","","","","","","","","69","85","140","10","40","",""
"4133","5","rating","canvas-keyboard-response","381","953644","0.0-11.0-0.185","105","2022-3-23","13:36:43","0","18","[""Asian"",""White""]","No","Female","1311493","","","","","","","","31","57","113","10","17","1",""
"null","null","clear_screen","canvas-keyboard-response","382","953904","0.0-11.0-1.185","105","2022-3-23","13:36:43","0","18","[""Asian"",""White""]","No","Female","1311493","","","","","","","","31","57","113","10","17","",""
"3015","1","rating","canvas-keyboard-response","383","956933","0.0-11.0-0.186","105","2022-3-23","13:36:43","0","18","[""Asian"",""White""]","No","Female","1311493","","","","","","","","47","57","140","10","40","0",""
"null","null","clear_screen","canvas-keyboard-response","384","957193","0.0-11.0-1.186","105","2022-3-23","13:36:43","0","18","[""Asian"",""White""]","No","Female","1311493","","","","","","","","47","57","140","10","40","",""
"1523","2","rating","canvas-keyboard-response","385","958732","0.0-11.0-0.187","105","2022-3-23","13:36:43","0","18","[""Asian"",""White""]","No","Female","1311493","","","","","","","","9","30","140","10","17","1",""
"null","null","clear_screen","canvas-keyboard-response","386","958996","0.0-11.0-1.187","105","2022-3-23","13:36:43","0","18","[""Asian"",""White""]","No","Female","1311493","","","","","","","","9","30","140","10","17","",""
"2483","8","rating","canvas-keyboard-response","387","961492","0.0-11.0-0.188","105","2022-3-23","13:36:43","0","18","[""Asian"",""White""]","No","Female","1311493","","","","","","","","300","113","140","40","40","1",""
"null","null","clear_screen","canvas-keyboard-response","388","961755","0.0-11.0-1.188","105","2022-3-23","13:36:43","0","18","[""Asian"",""White""]","No","Female","1311493","","","","","","","","300","113","140","40","40","",""
"4471","2","rating","canvas-keyboard-response","389","966236","0.0-11.0-0.189","105","2022-3-23","13:36:43","0","18","[""Asian"",""White""]","No","Female","1311493","","","","","","","","264","30","140","33","40","1",""
"null","null","clear_screen","canvas-keyboard-response","390","966499","0.0-11.0-1.189","105","2022-3-23","13:36:43","0","18","[""Asian"",""White""]","No","Female","1311493","","","","","","","","264","30","140","33","40","",""
"2724","6","rating","canvas-keyboard-response","391","969236","0.0-11.0-0.190","105","2022-3-23","13:36:43","0","18","[""Asian"",""White""]","No","Female","1311493","","","","","","","","120","30","30","17","33","0",""
"null","null","clear_screen","canvas-keyboard-response","392","969496","0.0-11.0-1.190","105","2022-3-23","13:36:43","0","18","[""Asian"",""White""]","No","Female","1311493","","","","","","","","120","30","30","17","33","",""
"2469","6","rating","canvas-keyboard-response","393","971980","0.0-11.0-0.191","105","2022-3-23","13:36:43","0","18","[""Asian"",""White""]","No","Female","1311493","","","","","","","","218","57","30","25","40","0",""
"null","null","clear_screen","canvas-keyboard-response","394","972243","0.0-11.0-1.191","105","2022-3-23","13:36:43","0","18","[""Asian"",""White""]","No","Female","1311493","","","","","","","","218","57","30","25","40","",""
"2411","6","rating","canvas-keyboard-response","395","974668","0.0-11.0-0.192","105","2022-3-23","13:36:43","0","18","[""Asian"",""White""]","No","Female","1311493","","","","","","","","100","140","140","10","25","0",""
"null","null","clear_screen","canvas-keyboard-response","396","974927","0.0-11.0-1.192","105","2022-3-23","13:36:43","0","18","[""Asian"",""White""]","No","Female","1311493","","","","","","","","100","140","140","10","25","",""
"1944","4","rating","canvas-keyboard-response","397","976885","0.0-11.0-0.193","105","2022-3-23","13:36:43","0","18","[""Asian"",""White""]","No","Female","1311493","","","","","","","","222","57","140","25","40","1",""
"null","null","clear_screen","canvas-keyboard-response","398","977147","0.0-11.0-1.193","105","2022-3-23","13:36:43","0","18","[""Asian"",""White""]","No","Female","1311493","","","","","","","","222","57","140","25","40","",""
"2862","3","rating","canvas-keyboard-response","399","980019","0.0-11.0-0.194","105","2022-3-23","13:36:43","0","18","[""Asian"",""White""]","No","Female","1311493","","","","","","","","61","85","57","10","33","0",""
"null","null","clear_screen","canvas-keyboard-response","400","980282","0.0-11.0-1.194","105","2022-3-23","13:36:43","0","18","[""Asian"",""White""]","No","Female","1311493","","","","","","","","61","85","57","10","33","",""
"2547","4","rating","canvas-keyboard-response","401","982844","0.0-11.0-0.195","105","2022-3-23","13:36:43","0","18","[""Asian"",""White""]","No","Female","1311493","","","","","","","","263","30","113","33","40","1",""
"null","null","clear_screen","canvas-keyboard-response","402","983103","0.0-11.0-1.195","105","2022-3-23","13:36:43","0","18","[""Asian"",""White""]","No","Female","1311493","","","","","","","","263","30","113","33","40","",""
"2662","5","rating","canvas-keyboard-response","403","985780","0.0-11.0-0.196","105","2022-3-23","13:36:43","0","18","[""Asian"",""White""]","No","Female","1311493","","","","","","","","188","140","85","17","33","0",""
"null","null","clear_screen","canvas-keyboard-response","404","986039","0.0-11.0-1.196","105","2022-3-23","13:36:43","0","18","[""Asian"",""White""]","No","Female","1311493","","","","","","","","188","140","85","17","33","",""
"2259","3","rating","canvas-keyboard-response","405","988308","0.0-11.0-0.197","105","2022-3-23","13:36:43","0","18","[""Asian"",""White""]","No","Female","1311493","","","","","","","","43","57","30","10","40","1",""
"null","null","clear_screen","canvas-keyboard-response","406","988568","0.0-11.0-1.197","105","2022-3-23","13:36:43","0","18","[""Asian"",""White""]","No","Female","1311493","","","","","","","","43","57","30","10","40","",""
"3153","5","rating","canvas-keyboard-response","407","991732","0.0-11.0-0.198","105","2022-3-23","13:36:43","0","18","[""Asian"",""White""]","No","Female","1311493","","","","","","","","226","85","57","25","33","1",""
"null","null","clear_screen","canvas-keyboard-response","408","991993","0.0-11.0-1.198","105","2022-3-23","13:36:43","0","18","[""Asian"",""White""]","No","Female","1311493","","","","","","","","226","85","57","25","33","",""
"2654","4","rating","canvas-keyboard-response","409","994659","0.0-11.0-0.199","105","2022-3-23","13:36:43","0","18","[""Asian"",""White""]","No","Female","1311493","","","","","","","","172","113","57","17","33","1",""
"null","null","clear_screen","canvas-keyboard-response","410","994920","0.0-11.0-1.199","105","2022-3-23","13:36:43","0","18","[""Asian"",""White""]","No","Female","1311493","","","","","","","","172","113","57","17","33","",""
"3432","8","rating","canvas-keyboard-response","411","998363","0.0-11.0-0.200","105","2022-3-23","13:36:43","0","18","[""Asian"",""White""]","No","Female","1311493","","","","","","","","134","57","57","17","25","0",""
"null","null","clear_screen","canvas-keyboard-response","412","998626","0.0-11.0-1.200","105","2022-3-23","13:36:43","0","18","[""Asian"",""White""]","No","Female","1311493","","","","","","","","134","57","57","17","25","",""
"3427","5","rating","canvas-keyboard-response","413","1002068","0.0-11.0-0.201","105","2022-3-23","13:36:43","0","18","[""Asian"",""White""]","No","Female","1311493","","","","","","","","242","113","57","25","40","1",""
"null","null","clear_screen","canvas-keyboard-response","414","1002328","0.0-11.0-1.201","105","2022-3-23","13:36:43","0","18","[""Asian"",""White""]","No","Female","1311493","","","","","","","","242","113","57","25","40","",""
"2176","7","rating","canvas-keyboard-response","415","1004514","0.0-11.0-0.202","105","2022-3-23","13:36:43","0","18","[""Asian"",""White""]","No","Female","1311493","","","","","","","","215","57","85","25","33","0",""
"null","null","clear_screen","canvas-keyboard-response","416","1004772","0.0-11.0-1.202","105","2022-3-23","13:36:43","0","18","[""Asian"",""White""]","No","Female","1311493","","","","","","","","215","57","85","25","33","",""
"2086","7","rating","canvas-keyboard-response","417","1006867","0.0-11.0-0.203","105","2022-3-23","13:36:43","0","18","[""Asian"",""White""]","No","Female","1311493","","","","","","","","168","113","85","17","25","0",""
"null","null","clear_screen","canvas-keyboard-response","418","1007128","0.0-11.0-1.203","105","2022-3-23","13:36:43","0","18","[""Asian"",""White""]","No","Female","1311493","","","","","","","","168","113","85","17","25","",""
"2554","6","rating","canvas-keyboard-response","419","1009692","0.0-11.0-0.204","105","2022-3-23","13:36:43","0","18","[""Asian"",""White""]","No","Female","1311493","","","","","","","","224","85","140","25","25","1",""
"null","null","clear_screen","canvas-keyboard-response","420","1009948","0.0-11.0-1.204","105","2022-3-23","13:36:43","0","18","[""Asian"",""White""]","No","Female","1311493","","","","","","","","224","85","140","25","25","",""
"2300","7","rating","canvas-keyboard-response","421","1012261","0.0-11.0-0.205","105","2022-3-23","13:36:43","0","18","[""Asian"",""White""]","No","Female","1311493","","","","","","","","249","140","113","25","33","0",""
"null","null","clear_screen","canvas-keyboard-response","422","1012523","0.0-11.0-1.205","105","2022-3-23","13:36:43","0","18","[""Asian"",""White""]","No","Female","1311493","","","","","","","","249","140","113","25","33","",""
"2059","4","rating","canvas-keyboard-response","423","1014596","0.0-11.0-0.206","105","2022-3-23","13:36:43","0","18","[""Asian"",""White""]","No","Female","1311493","","","","","","","","82","113","57","10","33","1",""
"null","null","clear_screen","canvas-keyboard-response","424","1014857","0.0-11.0-1.206","105","2022-3-23","13:36:43","0","18","[""Asian"",""White""]","No","Female","1311493","","","","","","","","82","113","57","10","33","",""
"1847","1","rating","canvas-keyboard-response","425","1016716","0.0-11.0-0.207","105","2022-3-23","13:36:43","0","18","[""Asian"",""White""]","No","Female","1311493","","","","","","","","124","30","140","17","33","1",""
"null","null","clear_screen","canvas-keyboard-response","426","1016976","0.0-11.0-1.207","105","2022-3-23","13:36:43","0","18","[""Asian"",""White""]","No","Female","1311493","","","","","","","","124","30","140","17","33","",""
"1727","2","rating","canvas-keyboard-response","427","1018716","0.0-11.0-0.208","105","2022-3-23","13:36:43","0","18","[""Asian"",""White""]","No","Female","1311493","","","","","","","","32","57","140","10","17","1",""
"null","null","clear_screen","canvas-keyboard-response","428","1018979","0.0-11.0-1.208","105","2022-3-23","13:36:43","0","18","[""Asian"",""White""]","No","Female","1311493","","","","","","","","32","57","140","10","17","",""
"2479","3","rating","canvas-keyboard-response","429","1021469","0.0-11.0-0.209","105","2022-3-23","13:36:43","0","18","[""Asian"",""White""]","No","Female","1311493","","","","","","","","161","85","57","17","40","1",""
"null","null","clear_screen","canvas-keyboard-response","430","1021730","0.0-11.0-1.209","105","2022-3-23","13:36:43","0","18","[""Asian"",""White""]","No","Female","1311493","","","","","","","","161","85","57","17","40","",""
"2891","2","rating","canvas-keyboard-response","431","1024636","0.0-11.0-0.210","105","2022-3-23","13:36:43","0","18","[""Asian"",""White""]","No","Female","1311493","","","","","","","","127","30","85","17","40","1",""
"null","null","clear_screen","canvas-keyboard-response","432","1024896","0.0-11.0-1.210","105","2022-3-23","13:36:43","0","18","[""Asian"",""White""]","No","Female","1311493","","","","","","","","127","30","85","17","40","",""
"1759","1","rating","canvas-keyboard-response","433","1026668","0.0-11.0-0.211","105","2022-3-23","13:36:43","0","18","[""Asian"",""White""]","No","Female","1311493","","","","","","","","42","57","140","10","33","0",""
"null","null","clear_screen","canvas-keyboard-response","434","1026928","0.0-11.0-1.211","105","2022-3-23","13:36:43","0","18","[""Asian"",""White""]","No","Female","1311493","","","","","","","","42","57","140","10","33","",""
"2511","2","rating","canvas-keyboard-response","435","1029453","0.0-11.0-0.212","105","2022-3-23","13:36:43","0","18","[""Asian"",""White""]","No","Female","1311493","","","","","","","","197","30","85","25","25","1",""
"null","null","clear_screen","canvas-keyboard-response","436","1029714","0.0-11.0-1.212","105","2022-3-23","13:36:43","0","18","[""Asian"",""White""]","No","Female","1311493","","","","","","","","197","30","85","25","25","",""
"2471","3","rating","canvas-keyboard-response","437","1032196","0.0-11.0-0.213","105","2022-3-23","13:36:43","0","18","[""Asian"",""White""]","No","Female","1311493","","","","","","","","58","85","113","10","25","1",""
"null","null","clear_screen","canvas-keyboard-response","438","1032459","0.0-11.0-1.213","105","2022-3-23","13:36:43","0","18","[""Asian"",""White""]","No","Female","1311493","","","","","","","","58","85","113","10","25","",""
"2243","2","rating","canvas-keyboard-response","439","1034716","0.0-11.0-0.214","105","2022-3-23","13:36:43","0","18","[""Asian"",""White""]","No","Female","1311493","","","","","","","","40","57","85","10","33","0",""
"null","null","clear_screen","canvas-keyboard-response","440","1034979","0.0-11.0-1.214","105","2022-3-23","13:36:43","0","18","[""Asian"",""White""]","No","Female","1311493","","","","","","","","40","57","85","10","33","",""
"2203","2","rating","canvas-keyboard-response","441","1037196","0.0-11.0-0.215","105","2022-3-23","13:36:43","0","18","[""Asian"",""White""]","No","Female","1311493","","","","","","","","50","85","30","10","17","0",""
"null","null","clear_screen","canvas-keyboard-response","442","1037454","0.0-11.0-1.215","105","2022-3-23","13:36:43","0","18","[""Asian"",""White""]","No","Female","1311493","","","","","","","","50","85","30","10","17","",""
