"rt","response","trialType","trial_type","trial_index","time_elapsed","internal_node_id","sub_n","date","time","leftRight","age","race","ethnicity","gender","exp_duration","success","timeout","failed_images","failed_audio","failed_video","stimulus","view_history","trialID","radius_a","radius_b","angle_a","angle_b","lrCond","question_order"
"2803","{""response"":""108""}","enter-sub-number","survey-html-form","0","2813","0.0-0.0","108","2022-3-25","14:36:53","0","20","[""White""]","No","Female","970395","","","","","","","","","","","","","",""
"","","","fullscreen","1","5352","0.0-1.0","108","2022-3-25","14:36:53","0","20","[""White""]","No","Female","970395","true","","","","","","","","","","","","",""
"","","","preload","2","5369","0.0-2.0","108","2022-3-25","14:36:53","0","20","[""White""]","No","Female","970395","true","false","[]","[]","[]","","","","","","","","",""
"12598","0","","html-button-response","3","17969","0.0-3.0","108","2022-3-25","14:36:53","0","20","[""White""]","No","Female","970395","","","","","","<div style= ""font-size:25px;"" <p> <strong> Welcome to the experiment! </strong><br> <p style=""color:#8B0000; font-size:25px;""><strong> Please do NOT exit full screen until you are done with the experiment. </strong> </p><p style=""font-size:25px;color:#8B0000;""> <strong> The experiment will be canceled and your data will be lost <br> if you try to go back or refresh the page at any point during the experiment.</strong> </p><br><p> <strong> Thanks in advance for your contribution to our research! </strong></p>","","","","","","","",""
"37354","","","instructions","4","55328","0.0-4.0","108","2022-3-25","14:36:53","0","20","[""White""]","No","Female","970395","","","","","","","[{""page_index"":0,""viewing_time"":12474},{""page_index"":1,""viewing_time"":19527},{""page_index"":2,""viewing_time"":5352}]","","","","","","",""
"null","null","presentPop","canvas-keyboard-response","5","71345","0.0-5.0","108","2022-3-25","14:36:53","0","20","[""White""]","No","Female","970395","","","","","","","","","","","","","",""
"null","null","clear_screen","canvas-keyboard-response","6","72112","0.0-6.0","108","2022-3-25","14:36:53","0","20","[""White""]","No","Female","970395","","","","","","","","","","","","","",""
"2740","","","instructions","7","74856","0.0-7.0","108","2022-3-25","14:36:53","0","20","[""White""]","No","Female","970395","","","","","","","[{""page_index"":0,""viewing_time"":2740}]","","","","","","",""
"null","null","presentPop","canvas-keyboard-response","8","90871","0.0-8.0","108","2022-3-25","14:36:53","0","20","[""White""]","No","Female","970395","","","","","","","","","","","","","",""
"null","null","clear_screen","canvas-keyboard-response","9","91637","0.0-9.0","108","2022-3-25","14:36:53","0","20","[""White""]","No","Female","970395","","","","","","","","","","","","","",""
"9177","","","instructions","10","100816","0.0-10.0","108","2022-3-25","14:36:53","0","20","[""White""]","No","Female","970395","","","","","","","[{""page_index"":0,""viewing_time"":4520},{""page_index"":1,""viewing_time"":4657}]","","","","","","",""
"39867","7","rating","canvas-keyboard-response","11","141696","0.0-11.0-0.0","108","2022-3-25","14:36:53","0","20","[""White""]","No","Female","970395","","","","","","","","52","85","85","10","17","0",""
"null","null","clear_screen","canvas-keyboard-response","12","141956","0.0-11.0-1.0","108","2022-3-25","14:36:53","0","20","[""White""]","No","Female","970395","","","","","","","","52","85","85","10","17","",""
"6157","2","rating","canvas-keyboard-response","13","148128","0.0-11.0-0.1","108","2022-3-25","14:36:53","0","20","[""White""]","No","Female","970395","","","","","","","","202","30","85","25","33","0",""
"null","null","clear_screen","canvas-keyboard-response","14","148387","0.0-11.0-1.1","108","2022-3-25","14:36:53","0","20","[""White""]","No","Female","970395","","","","","","","","202","30","85","25","33","",""
"4463","5","rating","canvas-keyboard-response","15","152863","0.0-11.0-0.2","108","2022-3-25","14:36:53","0","20","[""White""]","No","Female","970395","","","","","","","","231","85","57","25","40","0",""
"null","null","clear_screen","canvas-keyboard-response","16","153123","0.0-11.0-1.2","108","2022-3-25","14:36:53","0","20","[""White""]","No","Female","970395","","","","","","","","231","85","57","25","40","",""
"4264","1","rating","canvas-keyboard-response","17","157399","0.0-11.0-0.3","108","2022-3-25","14:36:53","0","20","[""White""]","No","Female","970395","","","","","","","","56","85","57","10","25","1",""
"null","null","clear_screen","canvas-keyboard-response","18","157662","0.0-11.0-1.3","108","2022-3-25","14:36:53","0","20","[""White""]","No","Female","970395","","","","","","","","56","85","57","10","25","",""
"8436","5","rating","canvas-keyboard-response","19","166112","0.0-11.0-0.4","108","2022-3-25","14:36:53","0","20","[""White""]","No","Female","970395","","","","","","","","174","113","113","17","33","1",""
"null","null","clear_screen","canvas-keyboard-response","20","166373","0.0-11.0-1.4","108","2022-3-25","14:36:53","0","20","[""White""]","No","Female","970395","","","","","","","","174","113","113","17","33","",""
"1670","1","rating","canvas-keyboard-response","21","168055","0.0-11.0-0.5","108","2022-3-25","14:36:53","0","20","[""White""]","No","Female","970395","","","","","","","","31","57","113","10","17","0",""
"null","null","clear_screen","canvas-keyboard-response","22","168316","0.0-11.0-1.5","108","2022-3-25","14:36:53","0","20","[""White""]","No","Female","970395","","","","","","","","31","57","113","10","17","",""
"662","1","rating","canvas-keyboard-response","23","168991","0.0-11.0-0.6","108","2022-3-25","14:36:53","0","20","[""White""]","No","Female","970395","","","","","","","","3","30","113","10","10","0",""
"null","null","clear_screen","canvas-keyboard-response","24","169253","0.0-11.0-1.6","108","2022-3-25","14:36:53","0","20","[""White""]","No","Female","970395","","","","","","","","3","30","113","10","10","",""
"2396","5","rating","canvas-keyboard-response","25","171664","0.0-11.0-0.7","108","2022-3-25","14:36:53","0","20","[""White""]","No","Female","970395","","","","","","","","223","85","113","25","25","1",""
"null","null","clear_screen","canvas-keyboard-response","26","171923","0.0-11.0-1.7","108","2022-3-25","14:36:53","0","20","[""White""]","No","Female","970395","","","","","","","","223","85","113","25","25","",""
"3498","3","rating","canvas-keyboard-response","27","175432","0.0-11.0-0.8","108","2022-3-25","14:36:53","0","20","[""White""]","No","Female","970395","","","","","","","","57","85","85","10","25","1",""
"null","null","clear_screen","canvas-keyboard-response","28","175691","0.0-11.0-1.8","108","2022-3-25","14:36:53","0","20","[""White""]","No","Female","970395","","","","","","","","57","85","85","10","25","",""
"3282","4","rating","canvas-keyboard-response","29","178983","0.0-11.0-0.9","108","2022-3-25","14:36:53","0","20","[""White""]","No","Female","970395","","","","","","","","44","57","57","10","40","0",""
"null","null","clear_screen","canvas-keyboard-response","30","179245","0.0-11.0-1.9","108","2022-3-25","14:36:53","0","20","[""White""]","No","Female","970395","","","","","","","","44","57","57","10","40","",""
"5548","2","rating","canvas-keyboard-response","31","184800","0.0-11.0-0.10","108","2022-3-25","14:36:53","0","20","[""White""]","No","Female","970395","","","","","","","","112","30","85","17","17","0",""
"null","null","clear_screen","canvas-keyboard-response","32","185060","0.0-11.0-1.10","108","2022-3-25","14:36:53","0","20","[""White""]","No","Female","970395","","","","","","","","112","30","85","17","17","",""
"3144","4","rating","canvas-keyboard-response","33","188215","0.0-11.0-0.11","108","2022-3-25","14:36:53","0","20","[""White""]","No","Female","970395","","","","","","","","238","113","85","25","33","0",""
"null","null","clear_screen","canvas-keyboard-response","34","188476","0.0-11.0-1.11","108","2022-3-25","14:36:53","0","20","[""White""]","No","Female","970395","","","","","","","","238","113","85","25","33","",""
"1295","1","rating","canvas-keyboard-response","35","189783","0.0-11.0-0.12","108","2022-3-25","14:36:53","0","20","[""White""]","No","Female","970395","","","","","","","","186","140","30","17","33","0",""
"null","null","clear_screen","canvas-keyboard-response","36","190045","0.0-11.0-1.12","108","2022-3-25","14:36:53","0","20","[""White""]","No","Female","970395","","","","","","","","186","140","30","17","33","",""
"5020","3","rating","canvas-keyboard-response","37","195080","0.0-11.0-0.13","108","2022-3-25","14:36:53","0","20","[""White""]","No","Female","970395","","","","","","","","292","30","85","40","40","1",""
"null","null","clear_screen","canvas-keyboard-response","38","195340","0.0-11.0-1.13","108","2022-3-25","14:36:53","0","20","[""White""]","No","Female","970395","","","","","","","","292","30","85","40","40","",""
"3334","1","rating","canvas-keyboard-response","39","198687","0.0-11.0-0.14","108","2022-3-25","14:36:53","0","20","[""White""]","No","Female","970395","","","","","","","","143","57","30","17","40","1",""
"null","null","clear_screen","canvas-keyboard-response","40","198946","0.0-11.0-1.14","108","2022-3-25","14:36:53","0","20","[""White""]","No","Female","970395","","","","","","","","143","57","30","17","40","",""
"2894","2","rating","canvas-keyboard-response","41","201855","0.0-11.0-0.15","108","2022-3-25","14:36:53","0","20","[""White""]","No","Female","970395","","","","","","","","83","113","85","10","33","1",""
"null","null","clear_screen","canvas-keyboard-response","42","202115","0.0-11.0-1.15","108","2022-3-25","14:36:53","0","20","[""White""]","No","Female","970395","","","","","","","","83","113","85","10","33","",""
"2664","2","rating","canvas-keyboard-response","43","204792","0.0-11.0-0.16","108","2022-3-25","14:36:53","0","20","[""White""]","No","Female","970395","","","","","","","","36","57","113","10","25","1",""
"null","null","clear_screen","canvas-keyboard-response","44","205051","0.0-11.0-1.16","108","2022-3-25","14:36:53","0","20","[""White""]","No","Female","970395","","","","","","","","36","57","113","10","25","",""
"3850","2","rating","canvas-keyboard-response","45","208912","0.0-11.0-0.17","108","2022-3-25","14:36:53","0","20","[""White""]","No","Female","970395","","","","","","","","26","57","113","10","10","1",""
"null","null","clear_screen","canvas-keyboard-response","46","209173","0.0-11.0-1.17","108","2022-3-25","14:36:53","0","20","[""White""]","No","Female","970395","","","","","","","","26","57","113","10","10","",""
"3108","3","rating","canvas-keyboard-response","47","212295","0.0-11.0-0.18","108","2022-3-25","14:36:53","0","20","[""White""]","No","Female","970395","","","","","","","","253","140","85","25","40","1",""
"null","null","clear_screen","canvas-keyboard-response","48","212554","0.0-11.0-1.18","108","2022-3-25","14:36:53","0","20","[""White""]","No","Female","970395","","","","","","","","253","140","85","25","40","",""
"3296","5","rating","canvas-keyboard-response","49","215863","0.0-11.0-0.19","108","2022-3-25","14:36:53","0","20","[""White""]","No","Female","970395","","","","","","","","99","140","113","10","25","1",""
"null","null","clear_screen","canvas-keyboard-response","50","216122","0.0-11.0-1.19","108","2022-3-25","14:36:53","0","20","[""White""]","No","Female","970395","","","","","","","","99","140","113","10","25","",""
"1798","1","rating","canvas-keyboard-response","51","217935","0.0-11.0-0.20","108","2022-3-25","14:36:53","0","20","[""White""]","No","Female","970395","","","","","","","","241","113","30","25","40","0",""
"null","null","clear_screen","canvas-keyboard-response","52","218195","0.0-11.0-1.20","108","2022-3-25","14:36:53","0","20","[""White""]","No","Female","970395","","","","","","","","241","113","30","25","40","",""
"2375","4","rating","canvas-keyboard-response","53","220583","0.0-11.0-0.21","108","2022-3-25","14:36:53","0","20","[""White""]","No","Female","970395","","","","","","","","110","140","140","10","40","0",""
"null","null","clear_screen","canvas-keyboard-response","54","220842","0.0-11.0-1.21","108","2022-3-25","14:36:53","0","20","[""White""]","No","Female","970395","","","","","","","","110","140","140","10","40","",""
"2801","3","rating","canvas-keyboard-response","55","223656","0.0-11.0-0.22","108","2022-3-25","14:36:53","0","20","[""White""]","No","Female","970395","","","","","","","","67","85","85","10","40","1",""
"null","null","clear_screen","canvas-keyboard-response","56","223915","0.0-11.0-1.22","108","2022-3-25","14:36:53","0","20","[""White""]","No","Female","970395","","","","","","","","67","85","85","10","40","",""
"8306","3","rating","canvas-keyboard-response","57","232231","0.0-11.0-0.23","108","2022-3-25","14:36:53","0","20","[""White""]","No","Female","970395","","","","","","","","73","113","85","10","17","1",""
"null","null","clear_screen","canvas-keyboard-response","58","232491","0.0-11.0-1.23","108","2022-3-25","14:36:53","0","20","[""White""]","No","Female","970395","","","","","","","","73","113","85","10","17","",""
"2452","5","rating","canvas-keyboard-response","59","234952","0.0-11.0-0.24","108","2022-3-25","14:36:53","0","20","[""White""]","No","Female","970395","","","","","","","","10","30","30","10","25","1",""
"null","null","clear_screen","canvas-keyboard-response","60","235211","0.0-11.0-1.24","108","2022-3-25","14:36:53","0","20","[""White""]","No","Female","970395","","","","","","","","10","30","30","10","25","",""
"1788","3","rating","canvas-keyboard-response","61","237015","0.0-11.0-0.25","108","2022-3-25","14:36:53","0","20","[""White""]","No","Female","970395","","","","","","","","27","57","140","10","10","1",""
"null","null","clear_screen","canvas-keyboard-response","62","237277","0.0-11.0-1.25","108","2022-3-25","14:36:53","0","20","[""White""]","No","Female","970395","","","","","","","","27","57","140","10","10","",""
"3576","6","rating","canvas-keyboard-response","63","240864","0.0-11.0-0.26","108","2022-3-25","14:36:53","0","20","[""White""]","No","Female","970395","","","","","","","","277","85","85","33","40","0",""
"null","null","clear_screen","canvas-keyboard-response","64","241122","0.0-11.0-1.26","108","2022-3-25","14:36:53","0","20","[""White""]","No","Female","970395","","","","","","","","277","85","85","33","40","",""
"4088","4","rating","canvas-keyboard-response","65","245223","0.0-11.0-0.27","108","2022-3-25","14:36:53","0","20","[""White""]","No","Female","970395","","","","","","","","270","57","85","33","40","1",""
"null","null","clear_screen","canvas-keyboard-response","66","245482","0.0-11.0-1.27","108","2022-3-25","14:36:53","0","20","[""White""]","No","Female","970395","","","","","","","","270","57","85","33","40","",""
"2549","3","rating","canvas-keyboard-response","67","248047","0.0-11.0-0.28","108","2022-3-25","14:36:53","0","20","[""White""]","No","Female","970395","","","","","","","","51","85","57","10","17","1",""
"null","null","clear_screen","canvas-keyboard-response","68","248309","0.0-11.0-1.28","108","2022-3-25","14:36:53","0","20","[""White""]","No","Female","970395","","","","","","","","51","85","57","10","17","",""
"3398","5","rating","canvas-keyboard-response","69","251719","0.0-11.0-0.29","108","2022-3-25","14:36:53","0","20","[""White""]","No","Female","970395","","","","","","","","100","140","140","10","25","0",""
"null","null","clear_screen","canvas-keyboard-response","70","251979","0.0-11.0-1.29","108","2022-3-25","14:36:53","0","20","[""White""]","No","Female","970395","","","","","","","","100","140","140","10","25","",""
"1955","3","rating","canvas-keyboard-response","71","253945","0.0-11.0-0.30","108","2022-3-25","14:36:53","0","20","[""White""]","No","Female","970395","","","","","","","","108","140","85","10","40","0",""
"null","null","clear_screen","canvas-keyboard-response","72","254204","0.0-11.0-1.30","108","2022-3-25","14:36:53","0","20","[""White""]","No","Female","970395","","","","","","","","108","140","85","10","40","",""
"2620","4","rating","canvas-keyboard-response","73","256839","0.0-11.0-0.31","108","2022-3-25","14:36:53","0","20","[""White""]","No","Female","970395","","","","","","","","245","113","140","25","40","0",""
"null","null","clear_screen","canvas-keyboard-response","74","257100","0.0-11.0-1.31","108","2022-3-25","14:36:53","0","20","[""White""]","No","Female","970395","","","","","","","","245","113","140","25","40","",""
"3160","3","rating","canvas-keyboard-response","75","260271","0.0-11.0-0.32","108","2022-3-25","14:36:53","0","20","[""White""]","No","Female","970395","","","","","","","","163","85","113","17","40","1",""
"null","null","clear_screen","canvas-keyboard-response","76","260533","0.0-11.0-1.32","108","2022-3-25","14:36:53","0","20","[""White""]","No","Female","970395","","","","","","","","163","85","113","17","40","",""
"1987","3","rating","canvas-keyboard-response","77","262535","0.0-11.0-0.33","108","2022-3-25","14:36:53","0","20","[""White""]","No","Female","970395","","","","","","","","116","30","57","17","25","0",""
"null","null","clear_screen","canvas-keyboard-response","78","262795","0.0-11.0-1.33","108","2022-3-25","14:36:53","0","20","[""White""]","No","Female","970395","","","","","","","","116","30","57","17","25","",""
"2775","3","rating","canvas-keyboard-response","79","265584","0.0-11.0-0.34","108","2022-3-25","14:36:53","0","20","[""White""]","No","Female","970395","","","","","","","","274","85","140","33","33","1",""
"null","null","clear_screen","canvas-keyboard-response","80","265845","0.0-11.0-1.34","108","2022-3-25","14:36:53","0","20","[""White""]","No","Female","970395","","","","","","","","274","85","140","33","33","",""
"1736","3","rating","canvas-keyboard-response","81","267592","0.0-11.0-0.35","108","2022-3-25","14:36:53","0","20","[""White""]","No","Female","970395","","","","","","","","58","85","113","10","25","0",""
"null","null","clear_screen","canvas-keyboard-response","82","267853","0.0-11.0-1.35","108","2022-3-25","14:36:53","0","20","[""White""]","No","Female","970395","","","","","","","","58","85","113","10","25","",""
"1504","2","rating","canvas-keyboard-response","83","269368","0.0-11.0-0.36","108","2022-3-25","14:36:53","0","20","[""White""]","No","Female","970395","","","","","","","","55","85","30","10","25","0",""
"null","null","clear_screen","canvas-keyboard-response","84","269626","0.0-11.0-1.36","108","2022-3-25","14:36:53","0","20","[""White""]","No","Female","970395","","","","","","","","55","85","30","10","25","",""
"1155","2","rating","canvas-keyboard-response","85","270791","0.0-11.0-0.37","108","2022-3-25","14:36:53","0","20","[""White""]","No","Female","970395","","","","","","","","263","30","113","33","40","0",""
"null","null","clear_screen","canvas-keyboard-response","86","271051","0.0-11.0-1.37","108","2022-3-25","14:36:53","0","20","[""White""]","No","Female","970395","","","","","","","","263","30","113","33","40","",""
"1835","4","rating","canvas-keyboard-response","87","272895","0.0-11.0-0.38","108","2022-3-25","14:36:53","0","20","[""White""]","No","Female","970395","","","","","","","","180","113","140","17","40","0",""
"null","null","clear_screen","canvas-keyboard-response","88","273155","0.0-11.0-1.38","108","2022-3-25","14:36:53","0","20","[""White""]","No","Female","970395","","","","","","","","180","113","140","17","40","",""
"5130","4","rating","canvas-keyboard-response","89","278296","0.0-11.0-0.39","108","2022-3-25","14:36:53","0","20","[""White""]","No","Female","970395","","","","","","","","233","85","113","25","40","0",""
"null","null","clear_screen","canvas-keyboard-response","90","278554","0.0-11.0-1.39","108","2022-3-25","14:36:53","0","20","[""White""]","No","Female","970395","","","","","","","","233","85","113","25","40","",""
"1937","3","rating","canvas-keyboard-response","91","280503","0.0-11.0-0.40","108","2022-3-25","14:36:53","0","20","[""White""]","No","Female","970395","","","","","","","","49","85","140","10","10","0",""
"null","null","clear_screen","canvas-keyboard-response","92","280765","0.0-11.0-1.40","108","2022-3-25","14:36:53","0","20","[""White""]","No","Female","970395","","","","","","","","49","85","140","10","10","",""
"1735","5","rating","canvas-keyboard-response","93","282511","0.0-11.0-0.41","108","2022-3-25","14:36:53","0","20","[""White""]","No","Female","970395","","","","","","","","153","85","113","17","25","1",""
"null","null","clear_screen","canvas-keyboard-response","94","282770","0.0-11.0-1.41","108","2022-3-25","14:36:53","0","20","[""White""]","No","Female","970395","","","","","","","","153","85","113","17","25","",""
"1145","1","rating","canvas-keyboard-response","95","283926","0.0-11.0-0.42","108","2022-3-25","14:36:53","0","20","[""White""]","No","Female","970395","","","","","","","","198","30","113","25","25","1",""
"null","null","clear_screen","canvas-keyboard-response","96","284186","0.0-11.0-1.42","108","2022-3-25","14:36:53","0","20","[""White""]","No","Female","970395","","","","","","","","198","30","113","25","25","",""
"3451","4","rating","canvas-keyboard-response","97","287648","0.0-11.0-0.43","108","2022-3-25","14:36:53","0","20","[""White""]","No","Female","970395","","","","","","","","220","57","85","25","40","1",""
"null","null","clear_screen","canvas-keyboard-response","98","287909","0.0-11.0-1.43","108","2022-3-25","14:36:53","0","20","[""White""]","No","Female","970395","","","","","","","","220","57","85","25","40","",""
"2227","4","rating","canvas-keyboard-response","99","290151","0.0-11.0-0.44","108","2022-3-25","14:36:53","0","20","[""White""]","No","Female","970395","","","","","","","","125","30","30","17","40","0",""
"null","null","clear_screen","canvas-keyboard-response","100","290411","0.0-11.0-1.44","108","2022-3-25","14:36:53","0","20","[""White""]","No","Female","970395","","","","","","","","125","30","30","17","40","",""
"2211","3","rating","canvas-keyboard-response","101","292631","0.0-11.0-0.45","108","2022-3-25","14:36:53","0","20","[""White""]","No","Female","970395","","","","","","","","175","113","140","17","33","0",""
"null","null","clear_screen","canvas-keyboard-response","102","292890","0.0-11.0-1.45","108","2022-3-25","14:36:53","0","20","[""White""]","No","Female","970395","","","","","","","","175","113","140","17","33","",""
"1746","2","rating","canvas-keyboard-response","103","294648","0.0-11.0-0.46","108","2022-3-25","14:36:53","0","20","[""White""]","No","Female","970395","","","","","","","","50","85","30","10","17","1",""
"null","null","clear_screen","canvas-keyboard-response","104","294909","0.0-11.0-1.46","108","2022-3-25","14:36:53","0","20","[""White""]","No","Female","970395","","","","","","","","50","85","30","10","17","",""
"902","2","rating","canvas-keyboard-response","105","295823","0.0-11.0-0.47","108","2022-3-25","14:36:53","0","20","[""White""]","No","Female","970395","","","","","","","","13","30","113","10","25","1",""
"null","null","clear_screen","canvas-keyboard-response","106","296083","0.0-11.0-1.47","108","2022-3-25","14:36:53","0","20","[""White""]","No","Female","970395","","","","","","","","13","30","113","10","25","",""
"5464","2","rating","canvas-keyboard-response","107","301559","0.0-11.0-0.48","108","2022-3-25","14:36:53","0","20","[""White""]","No","Female","970395","","","","","","","","257","30","85","33","33","1",""
"null","null","clear_screen","canvas-keyboard-response","108","301822","0.0-11.0-1.48","108","2022-3-25","14:36:53","0","20","[""White""]","No","Female","970395","","","","","","","","257","30","85","33","33","",""
"2054","3","rating","canvas-keyboard-response","109","303887","0.0-11.0-0.49","108","2022-3-25","14:36:53","0","20","[""White""]","No","Female","970395","","","","","","","","136","57","113","17","25","0",""
"null","null","clear_screen","canvas-keyboard-response","110","304147","0.0-11.0-1.49","108","2022-3-25","14:36:53","0","20","[""White""]","No","Female","970395","","","","","","","","136","57","113","17","25","",""
"1274","1","rating","canvas-keyboard-response","111","305431","0.0-11.0-0.50","108","2022-3-25","14:36:53","0","20","[""White""]","No","Female","970395","","","","","","","","24","30","140","10","40","1",""
"null","null","clear_screen","canvas-keyboard-response","112","305694","0.0-11.0-1.50","108","2022-3-25","14:36:53","0","20","[""White""]","No","Female","970395","","","","","","","","24","30","140","10","40","",""
"639","1","rating","canvas-keyboard-response","113","306343","0.0-11.0-0.51","108","2022-3-25","14:36:53","0","20","[""White""]","No","Female","970395","","","","","","","","286","140","30","33","40","0",""
"null","null","clear_screen","canvas-keyboard-response","114","306605","0.0-11.0-1.51","108","2022-3-25","14:36:53","0","20","[""White""]","No","Female","970395","","","","","","","","286","140","30","33","40","",""
"662","1","rating","canvas-keyboard-response","115","307279","0.0-11.0-0.52","108","2022-3-25","14:36:53","0","20","[""White""]","No","Female","970395","","","","","","","","47","57","140","10","40","0",""
"null","null","clear_screen","canvas-keyboard-response","116","307542","0.0-11.0-1.52","108","2022-3-25","14:36:53","0","20","[""White""]","No","Female","970395","","","","","","","","47","57","140","10","40","",""
"2069","3","rating","canvas-keyboard-response","117","309623","0.0-11.0-0.53","108","2022-3-25","14:36:53","0","20","[""White""]","No","Female","970395","","","","","","","","296","57","113","40","40","1",""
"null","null","clear_screen","canvas-keyboard-response","118","309885","0.0-11.0-1.53","108","2022-3-25","14:36:53","0","20","[""White""]","No","Female","970395","","","","","","","","296","57","113","40","40","",""
"1766","3","rating","canvas-keyboard-response","119","311663","0.0-11.0-0.54","108","2022-3-25","14:36:53","0","20","[""White""]","No","Female","970395","","","","","","","","237","113","57","25","33","1",""
"null","null","clear_screen","canvas-keyboard-response","120","311922","0.0-11.0-1.54","108","2022-3-25","14:36:53","0","20","[""White""]","No","Female","970395","","","","","","","","237","113","57","25","33","",""
"1955","5","rating","canvas-keyboard-response","121","313888","0.0-11.0-0.55","108","2022-3-25","14:36:53","0","20","[""White""]","No","Female","970395","","","","","","","","79","113","113","10","25","1",""
"null","null","clear_screen","canvas-keyboard-response","122","314148","0.0-11.0-1.55","108","2022-3-25","14:36:53","0","20","[""White""]","No","Female","970395","","","","","","","","79","113","113","10","25","",""
"1623","2","rating","canvas-keyboard-response","123","315784","0.0-11.0-0.56","108","2022-3-25","14:36:53","0","20","[""White""]","No","Female","970395","","","","","","","","32","57","140","10","17","0",""
"null","null","clear_screen","canvas-keyboard-response","124","316042","0.0-11.0-1.56","108","2022-3-25","14:36:53","0","20","[""White""]","No","Female","970395","","","","","","","","32","57","140","10","17","",""
"4528","5","rating","canvas-keyboard-response","125","320583","0.0-11.0-0.57","108","2022-3-25","14:36:53","0","20","[""White""]","No","Female","970395","","","","","","","","11","30","57","10","25","1",""
"null","null","clear_screen","canvas-keyboard-response","126","320843","0.0-11.0-1.57","108","2022-3-25","14:36:53","0","20","[""White""]","No","Female","970395","","","","","","","","11","30","57","10","25","",""
"2233","2","rating","canvas-keyboard-response","127","323087","0.0-11.0-0.58","108","2022-3-25","14:36:53","0","20","[""White""]","No","Female","970395","","","","","","","","60","85","30","10","33","0",""
"null","null","clear_screen","canvas-keyboard-response","128","323349","0.0-11.0-1.58","108","2022-3-25","14:36:53","0","20","[""White""]","No","Female","970395","","","","","","","","60","85","30","10","33","",""
"1409","5","rating","canvas-keyboard-response","129","324767","0.0-11.0-0.59","108","2022-3-25","14:36:53","0","20","[""White""]","No","Female","970395","","","","","","","","229","85","140","25","33","1",""
"null","null","clear_screen","canvas-keyboard-response","130","325027","0.0-11.0-1.59","108","2022-3-25","14:36:53","0","20","[""White""]","No","Female","970395","","","","","","","","229","85","140","25","33","",""
"673","5","rating","canvas-keyboard-response","131","325712","0.0-11.0-0.60","108","2022-3-25","14:36:53","0","20","[""White""]","No","Female","970395","","","","","","","","189","140","113","17","33","0",""
"null","null","clear_screen","canvas-keyboard-response","132","325973","0.0-11.0-1.60","108","2022-3-25","14:36:53","0","20","[""White""]","No","Female","970395","","","","","","","","189","140","113","17","33","",""
"2263","3","rating","canvas-keyboard-response","133","328247","0.0-11.0-0.61","108","2022-3-25","14:36:53","0","20","[""White""]","No","Female","970395","","","","","","","","161","85","57","17","40","1",""
"null","null","clear_screen","canvas-keyboard-response","134","328507","0.0-11.0-1.61","108","2022-3-25","14:36:53","0","20","[""White""]","No","Female","970395","","","","","","","","161","85","57","17","40","",""
"6742","8","rating","canvas-keyboard-response","135","335264","0.0-11.0-0.62","108","2022-3-25","14:36:53","0","20","[""White""]","No","Female","970395","","","","","","","","5","30","30","10","17","0",""
"null","null","clear_screen","canvas-keyboard-response","136","335524","0.0-11.0-1.62","108","2022-3-25","14:36:53","0","20","[""White""]","No","Female","970395","","","","","","","","5","30","30","10","17","",""
"1460","1","rating","canvas-keyboard-response","137","336999","0.0-11.0-0.63","108","2022-3-25","14:36:53","0","20","[""White""]","No","Female","970395","","","","","","","","129","30","140","17","40","0",""
"null","null","clear_screen","canvas-keyboard-response","138","337258","0.0-11.0-1.63","108","2022-3-25","14:36:53","0","20","[""White""]","No","Female","970395","","","","","","","","129","30","140","17","40","",""
"1866","3","rating","canvas-keyboard-response","139","339135","0.0-11.0-0.64","108","2022-3-25","14:36:53","0","20","[""White""]","No","Female","970395","","","","","","","","17","30","85","10","33","1",""
"null","null","clear_screen","canvas-keyboard-response","140","339396","0.0-11.0-1.64","108","2022-3-25","14:36:53","0","20","[""White""]","No","Female","970395","","","","","","","","17","30","85","10","33","",""
"4231","2","rating","canvas-keyboard-response","141","343639","0.0-11.0-0.65","108","2022-3-25","14:36:53","0","20","[""White""]","No","Female","970395","","","","","","","","206","30","57","25","40","0",""
"null","null","clear_screen","canvas-keyboard-response","142","343899","0.0-11.0-1.65","108","2022-3-25","14:36:53","0","20","[""White""]","No","Female","970395","","","","","","","","206","30","57","25","40","",""
"2389","7","rating","canvas-keyboard-response","143","346304","0.0-11.0-0.66","108","2022-3-25","14:36:53","0","20","[""White""]","No","Female","970395","","","","","","","","239","113","113","25","33","1",""
"null","null","clear_screen","canvas-keyboard-response","144","346565","0.0-11.0-1.66","108","2022-3-25","14:36:53","0","20","[""White""]","No","Female","970395","","","","","","","","239","113","113","25","33","",""
"1830","4","rating","canvas-keyboard-response","145","348407","0.0-11.0-0.67","108","2022-3-25","14:36:53","0","20","[""White""]","No","Female","970395","","","","","","","","137","57","140","17","25","1",""
"null","null","clear_screen","canvas-keyboard-response","146","348670","0.0-11.0-1.67","108","2022-3-25","14:36:53","0","20","[""White""]","No","Female","970395","","","","","","","","137","57","140","17","25","",""
"5256","3","rating","canvas-keyboard-response","147","353936","0.0-11.0-0.68","108","2022-3-25","14:36:53","0","20","[""White""]","No","Female","970395","","","","","","","","35","57","85","10","25","0",""
"null","null","clear_screen","canvas-keyboard-response","148","354200","0.0-11.0-1.68","108","2022-3-25","14:36:53","0","20","[""White""]","No","Female","970395","","","","","","","","35","57","85","10","25","",""
"1715","1","rating","canvas-keyboard-response","149","355928","0.0-11.0-0.69","108","2022-3-25","14:36:53","0","20","[""White""]","No","Female","970395","","","","","","","","293","30","113","40","40","1",""
"null","null","clear_screen","canvas-keyboard-response","150","356187","0.0-11.0-1.69","108","2022-3-25","14:36:53","0","20","[""White""]","No","Female","970395","","","","","","","","293","30","113","40","40","",""
"756","1","rating","canvas-keyboard-response","151","356958","0.0-11.0-0.70","108","2022-3-25","14:36:53","0","20","[""White""]","No","Female","970395","","","","","","","","209","30","140","25","40","0",""
"null","null","clear_screen","canvas-keyboard-response","152","357218","0.0-11.0-1.70","108","2022-3-25","14:36:53","0","20","[""White""]","No","Female","970395","","","","","","","","209","30","140","25","40","",""
"3640","3","rating","canvas-keyboard-response","153","360872","0.0-11.0-0.71","108","2022-3-25","14:36:53","0","20","[""White""]","No","Female","970395","","","","","","","","28","57","30","10","17","1",""
"null","null","clear_screen","canvas-keyboard-response","154","361132","0.0-11.0-1.71","108","2022-3-25","14:36:53","0","20","[""White""]","No","Female","970395","","","","","","","","28","57","30","10","17","",""
"1119","1","rating","canvas-keyboard-response","155","362264","0.0-11.0-0.72","108","2022-3-25","14:36:53","0","20","[""White""]","No","Female","970395","","","","","","","","264","30","140","33","40","0",""
"null","null","clear_screen","canvas-keyboard-response","156","362523","0.0-11.0-1.72","108","2022-3-25","14:36:53","0","20","[""White""]","No","Female","970395","","","","","","","","264","30","140","33","40","",""
"2373","8","rating","canvas-keyboard-response","157","364911","0.0-11.0-0.73","108","2022-3-25","14:36:53","0","20","[""White""]","No","Female","970395","","","","","","","","152","85","85","17","25","0",""
"null","null","clear_screen","canvas-keyboard-response","158","365172","0.0-11.0-1.73","108","2022-3-25","14:36:53","0","20","[""White""]","No","Female","970395","","","","","","","","152","85","85","17","25","",""
"2376","7","rating","canvas-keyboard-response","159","367560","0.0-11.0-0.74","108","2022-3-25","14:36:53","0","20","[""White""]","No","Female","970395","","","","","","","","244","113","113","25","40","0",""
"null","null","clear_screen","canvas-keyboard-response","160","367821","0.0-11.0-1.74","108","2022-3-25","14:36:53","0","20","[""White""]","No","Female","970395","","","","","","","","244","113","113","25","40","",""
"1215","1","rating","canvas-keyboard-response","161","369048","0.0-11.0-0.75","108","2022-3-25","14:36:53","0","20","[""White""]","No","Female","970395","","","","","","","","92","140","57","10","17","1",""
"null","null","clear_screen","canvas-keyboard-response","162","369309","0.0-11.0-1.75","108","2022-3-25","14:36:53","0","20","[""White""]","No","Female","970395","","","","","","","","92","140","57","10","17","",""
"1977","5","rating","canvas-keyboard-response","163","371296","0.0-11.0-0.76","108","2022-3-25","14:36:53","0","20","[""White""]","No","Female","970395","","","","","","","","240","113","140","25","33","1",""
"null","null","clear_screen","canvas-keyboard-response","164","371555","0.0-11.0-1.76","108","2022-3-25","14:36:53","0","20","[""White""]","No","Female","970395","","","","","","","","240","113","140","25","33","",""
"5965","8","rating","canvas-keyboard-response","165","377536","0.0-11.0-0.77","108","2022-3-25","14:36:53","0","20","[""White""]","No","Female","970395","","","","","","","","214","57","57","25","33","1",""
"null","null","clear_screen","canvas-keyboard-response","166","377797","0.0-11.0-1.77","108","2022-3-25","14:36:53","0","20","[""White""]","No","Female","970395","","","","","","","","214","57","57","25","33","",""
"4055","1","rating","canvas-keyboard-response","167","381865","0.0-11.0-0.78","108","2022-3-25","14:36:53","0","20","[""White""]","No","Female","970395","","","","","","","","155","85","30","17","33","0",""
"null","null","clear_screen","canvas-keyboard-response","168","382126","0.0-11.0-1.78","108","2022-3-25","14:36:53","0","20","[""White""]","No","Female","970395","","","","","","","","155","85","30","17","33","",""
"2591","5","rating","canvas-keyboard-response","169","384728","0.0-11.0-0.79","108","2022-3-25","14:36:53","0","20","[""White""]","No","Female","970395","","","","","","","","219","57","57","25","40","1",""
"null","null","clear_screen","canvas-keyboard-response","170","384992","0.0-11.0-1.79","108","2022-3-25","14:36:53","0","20","[""White""]","No","Female","970395","","","","","","","","219","57","57","25","40","",""
"2513","6","rating","canvas-keyboard-response","171","387520","0.0-11.0-0.80","108","2022-3-25","14:36:53","0","20","[""White""]","No","Female","970395","","","","","","","","285","113","140","33","40","0",""
"null","null","clear_screen","canvas-keyboard-response","172","387779","0.0-11.0-1.80","108","2022-3-25","14:36:53","0","20","[""White""]","No","Female","970395","","","","","","","","285","113","140","33","40","",""
"1224","1","rating","canvas-keyboard-response","173","389015","0.0-11.0-0.81","108","2022-3-25","14:36:53","0","20","[""White""]","No","Female","970395","","","","","","","","23","30","113","10","40","0",""
"null","null","clear_screen","canvas-keyboard-response","174","389275","0.0-11.0-1.81","108","2022-3-25","14:36:53","0","20","[""White""]","No","Female","970395","","","","","","","","23","30","113","10","40","",""
"2282","4","rating","canvas-keyboard-response","175","391568","0.0-11.0-0.82","108","2022-3-25","14:36:53","0","20","[""White""]","No","Female","970395","","","","","","","","276","85","57","33","40","1",""
"null","null","clear_screen","canvas-keyboard-response","176","391826","0.0-11.0-1.82","108","2022-3-25","14:36:53","0","20","[""White""]","No","Female","970395","","","","","","","","276","85","57","33","40","",""
"1497","4","rating","canvas-keyboard-response","177","393335","0.0-11.0-0.83","108","2022-3-25","14:36:53","0","20","[""White""]","No","Female","970395","","","","","","","","6","30","57","10","17","0",""
"null","null","clear_screen","canvas-keyboard-response","178","393597","0.0-11.0-1.83","108","2022-3-25","14:36:53","0","20","[""White""]","No","Female","970395","","","","","","","","6","30","57","10","17","",""
"1293","1","rating","canvas-keyboard-response","179","394904","0.0-11.0-0.84","108","2022-3-25","14:36:53","0","20","[""White""]","No","Female","970395","","","","","","","","203","30","113","25","33","0",""
"null","null","clear_screen","canvas-keyboard-response","180","395165","0.0-11.0-1.84","108","2022-3-25","14:36:53","0","20","[""White""]","No","Female","970395","","","","","","","","203","30","113","25","33","",""
"1717","3","rating","canvas-keyboard-response","181","396896","0.0-11.0-0.85","108","2022-3-25","14:36:53","0","20","[""White""]","No","Female","970395","","","","","","","","177","113","57","17","40","0",""
"null","null","clear_screen","canvas-keyboard-response","182","397157","0.0-11.0-1.85","108","2022-3-25","14:36:53","0","20","[""White""]","No","Female","970395","","","","","","","","177","113","57","17","40","",""
"3405","4","rating","canvas-keyboard-response","183","400575","0.0-11.0-0.86","108","2022-3-25","14:36:53","0","20","[""White""]","No","Female","970395","","","","","","","","268","57","30","33","40","0",""
"null","null","clear_screen","canvas-keyboard-response","184","400836","0.0-11.0-1.86","108","2022-3-25","14:36:53","0","20","[""White""]","No","Female","970395","","","","","","","","268","57","30","33","40","",""
"1630","1","rating","canvas-keyboard-response","185","402479","0.0-11.0-0.87","108","2022-3-25","14:36:53","0","20","[""White""]","No","Female","970395","","","","","","","","113","30","113","17","17","1",""
"null","null","clear_screen","canvas-keyboard-response","186","402741","0.0-11.0-1.87","108","2022-3-25","14:36:53","0","20","[""White""]","No","Female","970395","","","","","","","","113","30","113","17","17","",""
"2140","3","rating","canvas-keyboard-response","187","404896","0.0-11.0-0.88","108","2022-3-25","14:36:53","0","20","[""White""]","No","Female","970395","","","","","","","","164","85","140","17","40","1",""
"null","null","clear_screen","canvas-keyboard-response","188","405159","0.0-11.0-1.88","108","2022-3-25","14:36:53","0","20","[""White""]","No","Female","970395","","","","","","","","164","85","140","17","40","",""
"1135","1","rating","canvas-keyboard-response","189","406304","0.0-11.0-0.89","108","2022-3-25","14:36:53","0","20","[""White""]","No","Female","970395","","","","","","","","251","140","30","25","40","0",""
"null","null","clear_screen","canvas-keyboard-response","190","406564","0.0-11.0-1.89","108","2022-3-25","14:36:53","0","20","[""White""]","No","Female","970395","","","","","","","","251","140","30","25","40","",""
"606","1","rating","canvas-keyboard-response","191","407183","0.0-11.0-0.90","108","2022-3-25","14:36:53","0","20","[""White""]","No","Female","970395","","","","","","","","9","30","140","10","17","1",""
"null","null","clear_screen","canvas-keyboard-response","192","407442","0.0-11.0-1.90","108","2022-3-25","14:36:53","0","20","[""White""]","No","Female","970395","","","","","","","","9","30","140","10","17","",""
"4265","2","rating","canvas-keyboard-response","193","411720","0.0-11.0-0.91","108","2022-3-25","14:36:53","0","20","[""White""]","No","Female","970395","","","","","","","","271","57","113","33","40","1",""
"null","null","clear_screen","canvas-keyboard-response","194","411981","0.0-11.0-1.91","108","2022-3-25","14:36:53","0","20","[""White""]","No","Female","970395","","","","","","","","271","57","113","33","40","",""
"1293","2","rating","canvas-keyboard-response","195","413288","0.0-11.0-0.92","108","2022-3-25","14:36:53","0","20","[""White""]","No","Female","970395","","","","","","","","146","57","113","17","40","0",""
"null","null","clear_screen","canvas-keyboard-response","196","413549","0.0-11.0-1.92","108","2022-3-25","14:36:53","0","20","[""White""]","No","Female","970395","","","","","","","","146","57","113","17","40","",""
"1814","4","rating","canvas-keyboard-response","197","415376","0.0-11.0-0.93","108","2022-3-25","14:36:53","0","20","[""White""]","No","Female","970395","","","","","","","","265","57","85","33","33","0",""
"null","null","clear_screen","canvas-keyboard-response","198","415636","0.0-11.0-1.93","108","2022-3-25","14:36:53","0","20","[""White""]","No","Female","970395","","","","","","","","265","57","85","33","33","",""
"3770","5","rating","canvas-keyboard-response","199","419416","0.0-11.0-0.94","108","2022-3-25","14:36:53","0","20","[""White""]","No","Female","970395","","","","","","","","243","113","85","25","40","0",""
"null","null","clear_screen","canvas-keyboard-response","200","419679","0.0-11.0-1.94","108","2022-3-25","14:36:53","0","20","[""White""]","No","Female","970395","","","","","","","","243","113","85","25","40","",""
"1820","1","rating","canvas-keyboard-response","201","421512","0.0-11.0-0.95","108","2022-3-25","14:36:53","0","20","[""White""]","No","Female","970395","","","","","","","","204","30","140","25","33","1",""
"null","null","clear_screen","canvas-keyboard-response","202","421776","0.0-11.0-1.95","108","2022-3-25","14:36:53","0","20","[""White""]","No","Female","970395","","","","","","","","204","30","140","25","33","",""
"6537","2","rating","canvas-keyboard-response","203","428329","0.0-11.0-0.96","108","2022-3-25","14:36:53","0","20","[""White""]","No","Female","970395","","","","","","","","217","57","140","25","33","1",""
"null","null","clear_screen","canvas-keyboard-response","204","428590","0.0-11.0-1.96","108","2022-3-25","14:36:53","0","20","[""White""]","No","Female","970395","","","","","","","","217","57","140","25","33","",""
"1596","1","rating","canvas-keyboard-response","205","430200","0.0-11.0-0.97","108","2022-3-25","14:36:53","0","20","[""White""]","No","Female","970395","","","","","","","","176","113","30","17","40","0",""
"null","null","clear_screen","canvas-keyboard-response","206","430460","0.0-11.0-1.97","108","2022-3-25","14:36:53","0","20","[""White""]","No","Female","970395","","","","","","","","176","113","30","17","40","",""
"3056","6","rating","canvas-keyboard-response","207","433528","0.0-11.0-0.98","108","2022-3-25","14:36:53","0","20","[""White""]","No","Female","970395","","","","","","","","115","30","30","17","25","1",""
"null","null","clear_screen","canvas-keyboard-response","208","433787","0.0-11.0-1.98","108","2022-3-25","14:36:53","0","20","[""White""]","No","Female","970395","","","","","","","","115","30","30","17","25","",""
"1713","6","rating","canvas-keyboard-response","209","435512","0.0-11.0-0.99","108","2022-3-25","14:36:53","0","20","[""White""]","No","Female","970395","","","","","","","","111","30","57","17","17","1",""
"null","null","clear_screen","canvas-keyboard-response","210","435774","0.0-11.0-1.99","108","2022-3-25","14:36:53","0","20","[""White""]","No","Female","970395","","","","","","","","111","30","57","17","17","",""
"4077","2","rating","canvas-keyboard-response","211","439864","0.0-11.0-0.100","108","2022-3-25","14:36:53","0","20","[""White""]","No","Female","970395","","","","","","","","18","30","113","10","33","0",""
"null","null","clear_screen","canvas-keyboard-response","212","440126","0.0-11.0-1.100","108","2022-3-25","14:36:53","0","20","[""White""]","No","Female","970395","","","","","","","","18","30","113","10","33","",""
"1964","5","rating","canvas-keyboard-response","213","442104","0.0-11.0-0.101","108","2022-3-25","14:36:53","0","20","[""White""]","No","Female","970395","","","","","","","","207","30","85","25","40","1",""
"null","null","clear_screen","canvas-keyboard-response","214","442366","0.0-11.0-1.101","108","2022-3-25","14:36:53","0","20","[""White""]","No","Female","970395","","","","","","","","207","30","85","25","40","",""
"4295","6","rating","canvas-keyboard-response","215","446672","0.0-11.0-0.102","108","2022-3-25","14:36:53","0","20","[""White""]","No","Female","970395","","","","","","","","130","57","85","17","17","0",""
"null","null","clear_screen","canvas-keyboard-response","216","446933","0.0-11.0-1.102","108","2022-3-25","14:36:53","0","20","[""White""]","No","Female","970395","","","","","","","","130","57","85","17","17","",""
"1996","5","rating","canvas-keyboard-response","217","448944","0.0-11.0-0.103","108","2022-3-25","14:36:53","0","20","[""White""]","No","Female","970395","","","","","","","","211","57","113","25","25","1",""
"null","null","clear_screen","canvas-keyboard-response","218","449205","0.0-11.0-1.103","108","2022-3-25","14:36:53","0","20","[""White""]","No","Female","970395","","","","","","","","211","57","113","25","25","",""
"1773","3","rating","canvas-keyboard-response","219","450992","0.0-11.0-0.104","108","2022-3-25","14:36:53","0","20","[""White""]","No","Female","970395","","","","","","","","213","57","30","25","33","0",""
"null","null","clear_screen","canvas-keyboard-response","220","451254","0.0-11.0-1.104","108","2022-3-25","14:36:53","0","20","[""White""]","No","Female","970395","","","","","","","","213","57","30","25","33","",""
"1956","5","rating","canvas-keyboard-response","221","453224","0.0-11.0-0.105","108","2022-3-25","14:36:53","0","20","[""White""]","No","Female","970395","","","","","","","","158","85","113","17","33","0",""
"null","null","clear_screen","canvas-keyboard-response","222","453485","0.0-11.0-1.105","108","2022-3-25","14:36:53","0","20","[""White""]","No","Female","970395","","","","","","","","158","85","113","17","33","",""
"1468","3","rating","canvas-keyboard-response","223","454968","0.0-11.0-0.106","108","2022-3-25","14:36:53","0","20","[""White""]","No","Female","970395","","","","","","","","45","57","85","10","40","1",""
"null","null","clear_screen","canvas-keyboard-response","224","455226","0.0-11.0-1.106","108","2022-3-25","14:36:53","0","20","[""White""]","No","Female","970395","","","","","","","","45","57","85","10","40","",""
"1787","7","rating","canvas-keyboard-response","225","457024","0.0-11.0-0.107","108","2022-3-25","14:36:53","0","20","[""White""]","No","Female","970395","","","","","","","","298","85","113","40","40","0",""
"null","null","clear_screen","canvas-keyboard-response","226","457285","0.0-11.0-1.107","108","2022-3-25","14:36:53","0","20","[""White""]","No","Female","970395","","","","","","","","298","85","113","40","40","",""
"1911","6","rating","canvas-keyboard-response","227","459207","0.0-11.0-0.108","108","2022-3-25","14:36:53","0","20","[""White""]","No","Female","970395","","","","","","","","235","113","140","25","25","1",""
"null","null","clear_screen","canvas-keyboard-response","228","459467","0.0-11.0-1.108","108","2022-3-25","14:36:53","0","20","[""White""]","No","Female","970395","","","","","","","","235","113","140","25","25","",""
"1352","4","rating","canvas-keyboard-response","229","460832","0.0-11.0-0.109","108","2022-3-25","14:36:53","0","20","[""White""]","No","Female","970395","","","","","","","","54","85","140","10","17","1",""
"null","null","clear_screen","canvas-keyboard-response","230","461093","0.0-11.0-1.109","108","2022-3-25","14:36:53","0","20","[""White""]","No","Female","970395","","","","","","","","54","85","140","10","17","",""
"2207","8","rating","canvas-keyboard-response","231","463311","0.0-11.0-0.110","108","2022-3-25","14:36:53","0","20","[""White""]","No","Female","970395","","","","","","","","185","140","140","17","25","0",""
"null","null","clear_screen","canvas-keyboard-response","232","463574","0.0-11.0-1.110","108","2022-3-25","14:36:53","0","20","[""White""]","No","Female","970395","","","","","","","","185","140","140","17","25","",""
"3100","5","rating","canvas-keyboard-response","233","466687","0.0-11.0-0.111","108","2022-3-25","14:36:53","0","20","[""White""]","No","Female","970395","","","","","","","","291","30","57","40","40","1",""
"null","null","clear_screen","canvas-keyboard-response","234","466948","0.0-11.0-1.111","108","2022-3-25","14:36:53","0","20","[""White""]","No","Female","970395","","","","","","","","291","30","57","40","40","",""
"1269","4","rating","canvas-keyboard-response","235","468232","0.0-11.0-0.112","108","2022-3-25","14:36:53","0","20","[""White""]","No","Female","970395","","","","","","","","145","57","85","17","40","1",""
"null","null","clear_screen","canvas-keyboard-response","236","468493","0.0-11.0-1.112","108","2022-3-25","14:36:53","0","20","[""White""]","No","Female","970395","","","","","","","","145","57","85","17","40","",""
"2463","2","rating","canvas-keyboard-response","237","470967","0.0-11.0-0.113","108","2022-3-25","14:36:53","0","20","[""White""]","No","Female","970395","","","","","","","","192","140","57","17","40","1",""
"null","null","clear_screen","canvas-keyboard-response","238","471229","0.0-11.0-1.113","108","2022-3-25","14:36:53","0","20","[""White""]","No","Female","970395","","","","","","","","192","140","57","17","40","",""
"1160","1","rating","canvas-keyboard-response","239","472400","0.0-11.0-0.114","108","2022-3-25","14:36:53","0","20","[""White""]","No","Female","970395","","","","","","","","124","30","140","17","33","1",""
"null","null","clear_screen","canvas-keyboard-response","240","472661","0.0-11.0-1.114","108","2022-3-25","14:36:53","0","20","[""White""]","No","Female","970395","","","","","","","","124","30","140","17","33","",""
"1552","5","rating","canvas-keyboard-response","241","474224","0.0-11.0-0.115","108","2022-3-25","14:36:53","0","20","[""White""]","No","Female","970395","","","","","","","","242","113","57","25","40","0",""
"null","null","clear_screen","canvas-keyboard-response","242","474486","0.0-11.0-1.115","108","2022-3-25","14:36:53","0","20","[""White""]","No","Female","970395","","","","","","","","242","113","57","25","40","",""
"2643","3","rating","canvas-keyboard-response","243","477143","0.0-11.0-0.116","108","2022-3-25","14:36:53","0","20","[""White""]","No","Female","970395","","","","","","","","295","57","85","40","40","0",""
"null","null","clear_screen","canvas-keyboard-response","244","477405","0.0-11.0-1.116","108","2022-3-25","14:36:53","0","20","[""White""]","No","Female","970395","","","","","","","","295","57","85","40","40","",""
"1781","5","rating","canvas-keyboard-response","245","479200","0.0-11.0-0.117","108","2022-3-25","14:36:53","0","20","[""White""]","No","Female","970395","","","","","","","","74","113","113","10","17","1",""
"null","null","clear_screen","canvas-keyboard-response","246","479461","0.0-11.0-1.117","108","2022-3-25","14:36:53","0","20","[""White""]","No","Female","970395","","","","","","","","74","113","113","10","17","",""
"2463","2","rating","canvas-keyboard-response","247","481935","0.0-11.0-0.118","108","2022-3-25","14:36:53","0","20","[""White""]","No","Female","970395","","","","","","","","16","30","57","10","33","1",""
"null","null","clear_screen","canvas-keyboard-response","248","482195","0.0-11.0-1.118","108","2022-3-25","14:36:53","0","20","[""White""]","No","Female","970395","","","","","","","","16","30","57","10","33","",""
"1320","2","rating","canvas-keyboard-response","249","483527","0.0-11.0-0.119","108","2022-3-25","14:36:53","0","20","[""White""]","No","Female","970395","","","","","","","","258","30","113","33","33","0",""
"null","null","clear_screen","canvas-keyboard-response","250","483788","0.0-11.0-1.119","108","2022-3-25","14:36:53","0","20","[""White""]","No","Female","970395","","","","","","","","258","30","113","33","33","",""
"1864","5","rating","canvas-keyboard-response","251","485663","0.0-11.0-0.120","108","2022-3-25","14:36:53","0","20","[""White""]","No","Female","970395","","","","","","","","39","57","57","10","33","1",""
"null","null","clear_screen","canvas-keyboard-response","252","485925","0.0-11.0-1.120","108","2022-3-25","14:36:53","0","20","[""White""]","No","Female","970395","","","","","","","","39","57","57","10","33","",""
"1653","3","rating","canvas-keyboard-response","253","487591","0.0-11.0-0.121","108","2022-3-25","14:36:53","0","20","[""White""]","No","Female","970395","","","","","","","","82","113","57","10","33","1",""
"null","null","clear_screen","canvas-keyboard-response","254","487852","0.0-11.0-1.121","108","2022-3-25","14:36:53","0","20","[""White""]","No","Female","970395","","","","","","","","82","113","57","10","33","",""
"5765","4","rating","canvas-keyboard-response","255","493632","0.0-11.0-0.122","108","2022-3-25","14:36:53","0","20","[""White""]","No","Female","970395","","","","","","","","120","30","30","17","33","0",""
"null","null","clear_screen","canvas-keyboard-response","256","493893","0.0-11.0-1.122","108","2022-3-25","14:36:53","0","20","[""White""]","No","Female","970395","","","","","","","","120","30","30","17","33","",""
"2877","3","rating","canvas-keyboard-response","257","496783","0.0-11.0-0.123","108","2022-3-25","14:36:53","0","20","[""White""]","No","Female","970395","","","","","","","","261","30","57","33","40","0",""
"null","null","clear_screen","canvas-keyboard-response","258","497043","0.0-11.0-1.123","108","2022-3-25","14:36:53","0","20","[""White""]","No","Female","970395","","","","","","","","261","30","57","33","40","",""
"3463","3","rating","canvas-keyboard-response","259","500519","0.0-11.0-0.124","108","2022-3-25","14:36:53","0","20","[""White""]","No","Female","970395","","","","","","","","144","57","57","17","40","1",""
"null","null","clear_screen","canvas-keyboard-response","260","500780","0.0-11.0-1.124","108","2022-3-25","14:36:53","0","20","[""White""]","No","Female","970395","","","","","","","","144","57","57","17","40","",""
"4848","9","rating","canvas-keyboard-response","261","505640","0.0-11.0-0.125","108","2022-3-25","14:36:53","0","20","[""White""]","No","Female","970395","","","","","","","","48","85","113","10","10","0",""
"null","null","clear_screen","canvas-keyboard-response","262","505901","0.0-11.0-1.125","108","2022-3-25","14:36:53","0","20","[""White""]","No","Female","970395","","","","","","","","48","85","113","10","10","",""
"4880","2","rating","canvas-keyboard-response","263","510791","0.0-11.0-0.126","108","2022-3-25","14:36:53","0","20","[""White""]","No","Female","970395","","","","","","","","77","113","57","10","25","1",""
"null","null","clear_screen","canvas-keyboard-response","264","511051","0.0-11.0-1.126","108","2022-3-25","14:36:53","0","20","[""White""]","No","Female","970395","","","","","","","","77","113","57","10","25","",""
"944","2","rating","canvas-keyboard-response","265","512008","0.0-11.0-0.127","108","2022-3-25","14:36:53","0","20","[""White""]","No","Female","970395","","","","","","","","123","30","113","17","33","0",""
"null","null","clear_screen","canvas-keyboard-response","266","512268","0.0-11.0-1.127","108","2022-3-25","14:36:53","0","20","[""White""]","No","Female","970395","","","","","","","","123","30","113","17","33","",""
"878","2","rating","canvas-keyboard-response","267","513160","0.0-11.0-0.128","108","2022-3-25","14:36:53","0","20","[""White""]","No","Female","970395","","","","","","","","109","140","113","10","40","0",""
"null","null","clear_screen","canvas-keyboard-response","268","513422","0.0-11.0-1.128","108","2022-3-25","14:36:53","0","20","[""White""]","No","Female","970395","","","","","","","","109","140","113","10","40","",""
"3286","7","rating","canvas-keyboard-response","269","516719","0.0-11.0-0.129","108","2022-3-25","14:36:53","0","20","[""White""]","No","Female","970395","","","","","","","","250","140","140","25","33","0",""
"null","null","clear_screen","canvas-keyboard-response","270","516979","0.0-11.0-1.129","108","2022-3-25","14:36:53","0","20","[""White""]","No","Female","970395","","","","","","","","250","140","140","25","33","",""
"3701","6","rating","canvas-keyboard-response","271","520696","0.0-11.0-0.130","108","2022-3-25","14:36:53","0","20","[""White""]","No","Female","970395","","","","","","","","133","57","30","17","25","0",""
"null","null","clear_screen","canvas-keyboard-response","272","520958","0.0-11.0-1.130","108","2022-3-25","14:36:53","0","20","[""White""]","No","Female","970395","","","","","","","","133","57","30","17","25","",""
"1396","3","rating","canvas-keyboard-response","273","522368","0.0-11.0-0.131","108","2022-3-25","14:36:53","0","20","[""White""]","No","Female","970395","","","","","","","","21","30","57","10","40","1",""
"null","null","clear_screen","canvas-keyboard-response","274","522627","0.0-11.0-1.131","108","2022-3-25","14:36:53","0","20","[""White""]","No","Female","970395","","","","","","","","21","30","57","10","40","",""
"1364","3","rating","canvas-keyboard-response","275","524008","0.0-11.0-0.132","108","2022-3-25","14:36:53","0","20","[""White""]","No","Female","970395","","","","","","","","76","113","30","10","25","0",""
"null","null","clear_screen","canvas-keyboard-response","276","524267","0.0-11.0-1.132","108","2022-3-25","14:36:53","0","20","[""White""]","No","Female","970395","","","","","","","","76","113","30","10","25","",""
"1737","3","rating","canvas-keyboard-response","277","526015","0.0-11.0-0.133","108","2022-3-25","14:36:53","0","20","[""White""]","No","Female","970395","","","","","","","","142","57","140","17","33","1",""
"null","null","clear_screen","canvas-keyboard-response","278","526277","0.0-11.0-1.133","108","2022-3-25","14:36:53","0","20","[""White""]","No","Female","970395","","","","","","","","142","57","140","17","33","",""
"1744","4","rating","canvas-keyboard-response","279","528031","0.0-11.0-0.134","108","2022-3-25","14:36:53","0","20","[""White""]","No","Female","970395","","","","","","","","183","140","85","17","25","0",""
"null","null","clear_screen","canvas-keyboard-response","280","528294","0.0-11.0-1.134","108","2022-3-25","14:36:53","0","20","[""White""]","No","Female","970395","","","","","","","","183","140","85","17","25","",""
"1277","2","rating","canvas-keyboard-response","281","529584","0.0-11.0-0.135","108","2022-3-25","14:36:53","0","20","[""White""]","No","Female","970395","","","","","","","","166","113","30","17","25","0",""
"null","null","clear_screen","canvas-keyboard-response","282","529843","0.0-11.0-1.135","108","2022-3-25","14:36:53","0","20","[""White""]","No","Female","970395","","","","","","","","166","113","30","17","25","",""
"2123","2","rating","canvas-keyboard-response","283","531975","0.0-11.0-0.136","108","2022-3-25","14:36:53","0","20","[""White""]","No","Female","970395","","","","","","","","15","30","30","10","33","1",""
"null","null","clear_screen","canvas-keyboard-response","284","532235","0.0-11.0-1.136","108","2022-3-25","14:36:53","0","20","[""White""]","No","Female","970395","","","","","","","","15","30","30","10","33","",""
"2832","3","rating","canvas-keyboard-response","285","535080","0.0-11.0-0.137","108","2022-3-25","14:36:53","0","20","[""White""]","No","Female","970395","","","","","","","","299","85","140","40","40","0",""
"null","null","clear_screen","canvas-keyboard-response","286","535339","0.0-11.0-1.137","108","2022-3-25","14:36:53","0","20","[""White""]","No","Female","970395","","","","","","","","299","85","140","40","40","",""
"2658","2","rating","canvas-keyboard-response","287","538008","0.0-11.0-0.138","108","2022-3-25","14:36:53","0","20","[""White""]","No","Female","970395","","","","","","","","93","140","85","10","17","1",""
"null","null","clear_screen","canvas-keyboard-response","288","538269","0.0-11.0-1.138","108","2022-3-25","14:36:53","0","20","[""White""]","No","Female","970395","","","","","","","","93","140","85","10","17","",""
"2005","7","rating","canvas-keyboard-response","289","540287","0.0-11.0-0.139","108","2022-3-25","14:36:53","0","20","[""White""]","No","Female","970395","","","","","","","","269","57","57","33","40","1",""
"null","null","clear_screen","canvas-keyboard-response","290","540549","0.0-11.0-1.139","108","2022-3-25","14:36:53","0","20","[""White""]","No","Female","970395","","","","","","","","269","57","57","33","40","",""
"16343","2","rating","canvas-keyboard-response","291","556904","0.0-11.0-0.140","108","2022-3-25","14:36:53","0","20","[""White""]","No","Female","970395","","","","","","","","252","140","57","25","40","0",""
"null","null","clear_screen","canvas-keyboard-response","292","557165","0.0-11.0-1.140","108","2022-3-25","14:36:53","0","20","[""White""]","No","Female","970395","","","","","","","","252","140","57","25","40","",""
"2030","2","rating","canvas-keyboard-response","293","559206","0.0-11.0-0.141","108","2022-3-25","14:36:53","0","20","[""White""]","No","Female","970395","","","","","","","","64","85","140","10","33","0",""
"null","null","clear_screen","canvas-keyboard-response","294","559466","0.0-11.0-1.141","108","2022-3-25","14:36:53","0","20","[""White""]","No","Female","970395","","","","","","","","64","85","140","10","33","",""
"1939","5","rating","canvas-keyboard-response","295","561416","0.0-11.0-0.142","108","2022-3-25","14:36:53","0","20","[""White""]","No","Female","970395","","","","","","","","131","57","113","17","17","0",""
"null","null","clear_screen","canvas-keyboard-response","296","561677","0.0-11.0-1.142","108","2022-3-25","14:36:53","0","20","[""White""]","No","Female","970395","","","","","","","","131","57","113","17","17","",""
"1568","4","rating","canvas-keyboard-response","297","563255","0.0-11.0-0.143","108","2022-3-25","14:36:53","0","20","[""White""]","No","Female","970395","","","","","","","","216","57","113","25","33","1",""
"null","null","clear_screen","canvas-keyboard-response","298","563519","0.0-11.0-1.143","108","2022-3-25","14:36:53","0","20","[""White""]","No","Female","970395","","","","","","","","216","57","113","25","33","",""
"1735","2","rating","canvas-keyboard-response","299","565263","0.0-11.0-0.144","108","2022-3-25","14:36:53","0","20","[""White""]","No","Female","970395","","","","","","","","38","57","30","10","33","1",""
"null","null","clear_screen","canvas-keyboard-response","300","565526","0.0-11.0-1.144","108","2022-3-25","14:36:53","0","20","[""White""]","No","Female","970395","","","","","","","","38","57","30","10","33","",""
"1168","2","rating","canvas-keyboard-response","301","566703","0.0-11.0-0.145","108","2022-3-25","14:36:53","0","20","[""White""]","No","Female","970395","","","","","","","","61","85","57","10","33","1",""
"null","null","clear_screen","canvas-keyboard-response","302","566965","0.0-11.0-1.145","108","2022-3-25","14:36:53","0","20","[""White""]","No","Female","970395","","","","","","","","61","85","57","10","33","",""
"1736","6","rating","canvas-keyboard-response","303","568712","0.0-11.0-0.146","108","2022-3-25","14:36:53","0","20","[""White""]","No","Female","970395","","","","","","","","215","57","85","25","33","1",""
"null","null","clear_screen","canvas-keyboard-response","304","568973","0.0-11.0-1.146","108","2022-3-25","14:36:53","0","20","[""White""]","No","Female","970395","","","","","","","","215","57","85","25","33","",""
"1636","1","rating","canvas-keyboard-response","305","570623","0.0-11.0-0.147","108","2022-3-25","14:36:53","0","20","[""White""]","No","Female","970395","","","","","","","","96","140","30","10","25","0",""
"null","null","clear_screen","canvas-keyboard-response","306","570883","0.0-11.0-1.147","108","2022-3-25","14:36:53","0","20","[""White""]","No","Female","970395","","","","","","","","96","140","30","10","25","",""
"4240","5","rating","canvas-keyboard-response","307","575136","0.0-11.0-0.148","108","2022-3-25","14:36:53","0","20","[""White""]","No","Female","970395","","","","","","","","255","140","140","25","40","1",""
"null","null","clear_screen","canvas-keyboard-response","308","575396","0.0-11.0-1.148","108","2022-3-25","14:36:53","0","20","[""White""]","No","Female","970395","","","","","","","","255","140","140","25","40","",""
"1959","4","rating","canvas-keyboard-response","309","577368","0.0-11.0-0.149","108","2022-3-25","14:36:53","0","20","[""White""]","No","Female","970395","","","","","","","","141","57","113","17","33","0",""
"null","null","clear_screen","canvas-keyboard-response","310","577628","0.0-11.0-1.149","108","2022-3-25","14:36:53","0","20","[""White""]","No","Female","970395","","","","","","","","141","57","113","17","33","",""
"1561","5","rating","canvas-keyboard-response","311","579199","0.0-11.0-0.150","108","2022-3-25","14:36:53","0","20","[""White""]","No","Female","970395","","","","","","","","72","113","57","10","17","0",""
"null","null","clear_screen","canvas-keyboard-response","312","579461","0.0-11.0-1.150","108","2022-3-25","14:36:53","0","20","[""White""]","No","Female","970395","","","","","","","","72","113","57","10","17","",""
"1430","2","rating","canvas-keyboard-response","313","580904","0.0-11.0-0.151","108","2022-3-25","14:36:53","0","20","[""White""]","No","Female","970395","","","","","","","","191","140","30","17","40","1",""
"null","null","clear_screen","canvas-keyboard-response","314","581166","0.0-11.0-1.151","108","2022-3-25","14:36:53","0","20","[""White""]","No","Female","970395","","","","","","","","191","140","30","17","40","",""
"2028","4","rating","canvas-keyboard-response","315","583207","0.0-11.0-0.152","108","2022-3-25","14:36:53","0","20","[""White""]","No","Female","970395","","","","","","","","59","85","140","10","25","1",""
"null","null","clear_screen","canvas-keyboard-response","316","583469","0.0-11.0-1.152","108","2022-3-25","14:36:53","0","20","[""White""]","No","Female","970395","","","","","","","","59","85","140","10","25","",""
"1189","4","rating","canvas-keyboard-response","317","584672","0.0-11.0-0.153","108","2022-3-25","14:36:53","0","20","[""White""]","No","Female","970395","","","","","","","","132","57","140","17","17","1",""
"null","null","clear_screen","canvas-keyboard-response","318","584933","0.0-11.0-1.153","108","2022-3-25","14:36:53","0","20","[""White""]","No","Female","970395","","","","","","","","132","57","140","17","17","",""
"1377","2","rating","canvas-keyboard-response","319","586320","0.0-11.0-0.154","108","2022-3-25","14:36:53","0","20","[""White""]","No","Female","970395","","","","","","","","236","113","30","25","33","1",""
"null","null","clear_screen","canvas-keyboard-response","320","586581","0.0-11.0-1.154","108","2022-3-25","14:36:53","0","20","[""White""]","No","Female","970395","","","","","","","","236","113","30","25","33","",""
"1260","2","rating","canvas-keyboard-response","321","587856","0.0-11.0-0.155","108","2022-3-25","14:36:53","0","20","[""White""]","No","Female","970395","","","","","","","","80","113","140","10","25","0",""
"null","null","clear_screen","canvas-keyboard-response","322","588116","0.0-11.0-1.155","108","2022-3-25","14:36:53","0","20","[""White""]","No","Female","970395","","","","","","","","80","113","140","10","25","",""
"1038","2","rating","canvas-keyboard-response","323","589166","0.0-11.0-0.156","108","2022-3-25","14:36:53","0","20","[""White""]","No","Female","970395","","","","","","","","160","85","30","17","40","1",""
"null","null","clear_screen","canvas-keyboard-response","324","589426","0.0-11.0-1.156","108","2022-3-25","14:36:53","0","20","[""White""]","No","Female","970395","","","","","","","","160","85","30","17","40","",""
"1642","3","rating","canvas-keyboard-response","325","591080","0.0-11.0-0.157","108","2022-3-25","14:36:53","0","20","[""White""]","No","Female","970395","","","","","","","","221","57","113","25","40","0",""
"null","null","clear_screen","canvas-keyboard-response","326","591341","0.0-11.0-1.157","108","2022-3-25","14:36:53","0","20","[""White""]","No","Female","970395","","","","","","","","221","57","113","25","40","",""
"1996","6","rating","canvas-keyboard-response","327","593351","0.0-11.0-0.158","108","2022-3-25","14:36:53","0","20","[""White""]","No","Female","970395","","","","","","","","232","85","85","25","40","1",""
"null","null","clear_screen","canvas-keyboard-response","328","593613","0.0-11.0-1.158","108","2022-3-25","14:36:53","0","20","[""White""]","No","Female","970395","","","","","","","","232","85","85","25","40","",""
"2162","4","rating","canvas-keyboard-response","329","595791","0.0-11.0-0.159","108","2022-3-25","14:36:53","0","20","[""White""]","No","Female","970395","","","","","","","","224","85","140","25","25","0",""
"null","null","clear_screen","canvas-keyboard-response","330","596054","0.0-11.0-1.159","108","2022-3-25","14:36:53","0","20","[""White""]","No","Female","970395","","","","","","","","224","85","140","25","25","",""
"716","4","rating","canvas-keyboard-response","331","596784","0.0-11.0-0.160","108","2022-3-25","14:36:53","0","20","[""White""]","No","Female","970395","","","","","","","","208","30","113","25","40","0",""
"null","null","clear_screen","canvas-keyboard-response","332","597045","0.0-11.0-1.160","108","2022-3-25","14:36:53","0","20","[""White""]","No","Female","970395","","","","","","","","208","30","113","25","40","",""
"1276","3","rating","canvas-keyboard-response","333","598335","0.0-11.0-0.161","108","2022-3-25","14:36:53","0","20","[""White""]","No","Female","970395","","","","","","","","101","140","30","10","33","1",""
"null","null","clear_screen","canvas-keyboard-response","334","598595","0.0-11.0-1.161","108","2022-3-25","14:36:53","0","20","[""White""]","No","Female","970395","","","","","","","","101","140","30","10","33","",""
"1684","6","rating","canvas-keyboard-response","335","600296","0.0-11.0-0.162","108","2022-3-25","14:36:53","0","20","[""White""]","No","Female","970395","","","","","","","","289","140","113","33","40","0",""
"null","null","clear_screen","canvas-keyboard-response","336","600555","0.0-11.0-1.162","108","2022-3-25","14:36:53","0","20","[""White""]","No","Female","970395","","","","","","","","289","140","113","33","40","",""
"1342","3","rating","canvas-keyboard-response","337","601911","0.0-11.0-0.163","108","2022-3-25","14:36:53","0","20","[""White""]","No","Female","970395","","","","","","","","65","85","30","10","40","0",""
"null","null","clear_screen","canvas-keyboard-response","338","602171","0.0-11.0-1.163","108","2022-3-25","14:36:53","0","20","[""White""]","No","Female","970395","","","","","","","","65","85","30","10","40","",""
"13009","3","rating","canvas-keyboard-response","339","615192","0.0-11.0-0.164","108","2022-3-25","14:36:53","0","20","[""White""]","No","Female","970395","","","","","","","","156","85","57","17","33","0",""
"null","null","clear_screen","canvas-keyboard-response","340","615452","0.0-11.0-1.164","108","2022-3-25","14:36:53","0","20","[""White""]","No","Female","970395","","","","","","","","156","85","57","17","33","",""
"737","3","rating","canvas-keyboard-response","341","616200","0.0-11.0-0.165","108","2022-3-25","14:36:53","0","20","[""White""]","No","Female","970395","","","","","","","","127","30","85","17","40","1",""
"null","null","clear_screen","canvas-keyboard-response","342","616461","0.0-11.0-1.165","108","2022-3-25","14:36:53","0","20","[""White""]","No","Female","970395","","","","","","","","127","30","85","17","40","",""
"1550","7","rating","canvas-keyboard-response","343","618023","0.0-11.0-0.166","108","2022-3-25","14:36:53","0","20","[""White""]","No","Female","970395","","","","","","","","168","113","85","17","25","0",""
"null","null","clear_screen","canvas-keyboard-response","344","618283","0.0-11.0-1.166","108","2022-3-25","14:36:53","0","20","[""White""]","No","Female","970395","","","","","","","","168","113","85","17","25","",""
"2976","4","rating","canvas-keyboard-response","345","621272","0.0-11.0-0.167","108","2022-3-25","14:36:53","0","20","[""White""]","No","Female","970395","","","","","","","","178","113","85","17","40","1",""
"null","null","clear_screen","canvas-keyboard-response","346","621532","0.0-11.0-1.167","108","2022-3-25","14:36:53","0","20","[""White""]","No","Female","970395","","","","","","","","178","113","85","17","40","",""
"1286","2","rating","canvas-keyboard-response","347","622831","0.0-11.0-0.168","108","2022-3-25","14:36:53","0","20","[""White""]","No","Female","970395","","","","","","","","69","85","140","10","40","1",""
"null","null","clear_screen","canvas-keyboard-response","348","623091","0.0-11.0-1.168","108","2022-3-25","14:36:53","0","20","[""White""]","No","Female","970395","","","","","","","","69","85","140","10","40","",""
"1528","5","rating","canvas-keyboard-response","349","624632","0.0-11.0-0.169","108","2022-3-25","14:36:53","0","20","[""White""]","No","Female","970395","","","","","","","","173","113","85","17","33","1",""
"null","null","clear_screen","canvas-keyboard-response","350","624893","0.0-11.0-1.169","108","2022-3-25","14:36:53","0","20","[""White""]","No","Female","970395","","","","","","","","173","113","85","17","33","",""
"1221","1","rating","canvas-keyboard-response","351","626128","0.0-11.0-0.170","108","2022-3-25","14:36:53","0","20","[""White""]","No","Female","970395","","","","","","","","114","30","140","17","17","1",""
"null","null","clear_screen","canvas-keyboard-response","352","626389","0.0-11.0-1.170","108","2022-3-25","14:36:53","0","20","[""White""]","No","Female","970395","","","","","","","","114","30","140","17","17","",""
"537","1","rating","canvas-keyboard-response","353","626936","0.0-11.0-0.171","108","2022-3-25","14:36:53","0","20","[""White""]","No","Female","970395","","","","","","","","14","30","140","10","25","1",""
"null","null","clear_screen","canvas-keyboard-response","354","627196","0.0-11.0-1.171","108","2022-3-25","14:36:53","0","20","[""White""]","No","Female","970395","","","","","","","","14","30","140","10","25","",""
"2165","3","rating","canvas-keyboard-response","355","629376","0.0-11.0-0.172","108","2022-3-25","14:36:53","0","20","[""White""]","No","Female","970395","","","","","","","","154","85","140","17","25","1",""
"null","null","clear_screen","canvas-keyboard-response","356","629637","0.0-11.0-1.172","108","2022-3-25","14:36:53","0","20","[""White""]","No","Female","970395","","","","","","","","154","85","140","17","25","",""
"1496","3","rating","canvas-keyboard-response","357","631144","0.0-11.0-0.173","108","2022-3-25","14:36:53","0","20","[""White""]","No","Female","970395","","","","","","","","41","57","113","10","33","0",""
"null","null","clear_screen","canvas-keyboard-response","358","631409","0.0-11.0-1.173","108","2022-3-25","14:36:53","0","20","[""White""]","No","Female","970395","","","","","","","","41","57","113","10","33","",""
"1345","5","rating","canvas-keyboard-response","359","632768","0.0-11.0-0.174","108","2022-3-25","14:36:53","0","20","[""White""]","No","Female","970395","","","","","","","","210","57","85","25","25","1",""
"null","null","clear_screen","canvas-keyboard-response","360","633029","0.0-11.0-1.174","108","2022-3-25","14:36:53","0","20","[""White""]","No","Female","970395","","","","","","","","210","57","85","25","25","",""
"2295","3","rating","canvas-keyboard-response","361","635336","0.0-11.0-0.175","108","2022-3-25","14:36:53","0","20","[""White""]","No","Female","970395","","","","","","","","78","113","85","10","25","0",""
"null","null","clear_screen","canvas-keyboard-response","362","635597","0.0-11.0-1.175","108","2022-3-25","14:36:53","0","20","[""White""]","No","Female","970395","","","","","","","","78","113","85","10","25","",""
"1267","2","rating","canvas-keyboard-response","363","636879","0.0-11.0-0.176","108","2022-3-25","14:36:53","0","20","[""White""]","No","Female","970395","","","","","","","","128","30","113","17","40","0",""
"null","null","clear_screen","canvas-keyboard-response","364","637143","0.0-11.0-1.176","108","2022-3-25","14:36:53","0","20","[""White""]","No","Female","970395","","","","","","","","128","30","113","17","40","",""
"1226","1","rating","canvas-keyboard-response","365","638385","0.0-11.0-0.177","108","2022-3-25","14:36:53","0","20","[""White""]","No","Female","970395","","","","","","","","246","140","30","25","33","1",""
"null","null","clear_screen","canvas-keyboard-response","366","638646","0.0-11.0-1.177","108","2022-3-25","14:36:53","0","20","[""White""]","No","Female","970395","","","","","","","","246","140","30","25","33","",""
"831","1","rating","canvas-keyboard-response","367","639488","0.0-11.0-0.178","108","2022-3-25","14:36:53","0","20","[""White""]","No","Female","970395","","","","","","","","212","57","140","25","25","0",""
"null","null","clear_screen","canvas-keyboard-response","368","639750","0.0-11.0-1.178","108","2022-3-25","14:36:53","0","20","[""White""]","No","Female","970395","","","","","","","","212","57","140","25","25","",""
"3695","9","rating","canvas-keyboard-response","369","643457","0.0-11.0-0.179","108","2022-3-25","14:36:53","0","20","[""White""]","No","Female","970395","","","","","","","","200","30","30","25","33","0",""
"null","null","clear_screen","canvas-keyboard-response","370","643717","0.0-11.0-1.179","108","2022-3-25","14:36:53","0","20","[""White""]","No","Female","970395","","","","","","","","200","30","30","25","33","",""
"2092","8","rating","canvas-keyboard-response","371","645825","0.0-11.0-0.180","108","2022-3-25","14:36:53","0","20","[""White""]","No","Female","970395","","","","","","","","95","140","140","10","17","1",""
"null","null","clear_screen","canvas-keyboard-response","372","646086","0.0-11.0-1.180","108","2022-3-25","14:36:53","0","20","[""White""]","No","Female","970395","","","","","","","","95","140","140","10","17","",""
"6252","4","rating","canvas-keyboard-response","373","652352","0.0-11.0-0.181","108","2022-3-25","14:36:53","0","20","[""White""]","No","Female","970395","","","","","","","","140","57","85","17","33","0",""
"null","null","clear_screen","canvas-keyboard-response","374","652612","0.0-11.0-1.181","108","2022-3-25","14:36:53","0","20","[""White""]","No","Female","970395","","","","","","","","140","57","85","17","33","",""
"1725","1","rating","canvas-keyboard-response","375","654352","0.0-11.0-0.182","108","2022-3-25","14:36:53","0","20","[""White""]","No","Female","970395","","","","","","","","4","30","140","10","10","0",""
"null","null","clear_screen","canvas-keyboard-response","376","654614","0.0-11.0-1.182","108","2022-3-25","14:36:53","0","20","[""White""]","No","Female","970395","","","","","","","","4","30","140","10","10","",""
"1839","1","rating","canvas-keyboard-response","377","656464","0.0-11.0-0.183","108","2022-3-25","14:36:53","0","20","[""White""]","No","Female","970395","","","","","","","","88","113","85","10","40","1",""
"null","null","clear_screen","canvas-keyboard-response","378","656726","0.0-11.0-1.183","108","2022-3-25","14:36:53","0","20","[""White""]","No","Female","970395","","","","","","","","88","113","85","10","40","",""
"3860","1","rating","canvas-keyboard-response","379","660599","0.0-11.0-0.184","108","2022-3-25","14:36:53","0","20","[""White""]","No","Female","970395","","","","","","","","272","57","140","33","40","0",""
"null","null","clear_screen","canvas-keyboard-response","380","660861","0.0-11.0-1.184","108","2022-3-25","14:36:53","0","20","[""White""]","No","Female","970395","","","","","","","","272","57","140","33","40","",""
"2685","6","rating","canvas-keyboard-response","381","663560","0.0-11.0-0.185","108","2022-3-25","14:36:53","0","20","[""White""]","No","Female","970395","","","","","","","","148","85","113","17","17","1",""
"null","null","clear_screen","canvas-keyboard-response","382","663820","0.0-11.0-1.185","108","2022-3-25","14:36:53","0","20","[""White""]","No","Female","970395","","","","","","","","148","85","113","17","17","",""
"1888","4","rating","canvas-keyboard-response","383","665719","0.0-11.0-0.186","108","2022-3-25","14:36:53","0","20","[""White""]","No","Female","970395","","","","","","","","63","85","113","10","33","0",""
"null","null","clear_screen","canvas-keyboard-response","384","665981","0.0-11.0-1.186","108","2022-3-25","14:36:53","0","20","[""White""]","No","Female","970395","","","","","","","","63","85","113","10","33","",""
"3772","5","rating","canvas-keyboard-response","385","669767","0.0-11.0-0.187","108","2022-3-25","14:36:53","0","20","[""White""]","No","Female","970395","","","","","","","","94","140","113","10","17","0",""
"null","null","clear_screen","canvas-keyboard-response","386","670029","0.0-11.0-1.187","108","2022-3-25","14:36:53","0","20","[""White""]","No","Female","970395","","","","","","","","94","140","113","10","17","",""
"1335","4","rating","canvas-keyboard-response","387","671375","0.0-11.0-0.188","108","2022-3-25","14:36:53","0","20","[""White""]","No","Female","970395","","","","","","","","12","30","85","10","25","0",""
"null","null","clear_screen","canvas-keyboard-response","388","671635","0.0-11.0-1.188","108","2022-3-25","14:36:53","0","20","[""White""]","No","Female","970395","","","","","","","","12","30","85","10","25","",""
"2077","3","rating","canvas-keyboard-response","389","673728","0.0-11.0-0.189","108","2022-3-25","14:36:53","0","20","[""White""]","No","Female","970395","","","","","","","","194","140","113","17","40","0",""
"null","null","clear_screen","canvas-keyboard-response","390","673992","0.0-11.0-1.189","108","2022-3-25","14:36:53","0","20","[""White""]","No","Female","970395","","","","","","","","194","140","113","17","40","",""
"1836","7","rating","canvas-keyboard-response","391","675840","0.0-11.0-0.190","108","2022-3-25","14:36:53","0","20","[""White""]","No","Female","970395","","","","","","","","29","57","57","10","17","1",""
"null","null","clear_screen","canvas-keyboard-response","392","676099","0.0-11.0-1.190","108","2022-3-25","14:36:53","0","20","[""White""]","No","Female","970395","","","","","","","","29","57","57","10","17","",""
"2145","5","rating","canvas-keyboard-response","393","678256","0.0-11.0-0.191","108","2022-3-25","14:36:53","0","20","[""White""]","No","Female","970395","","","","","","","","256","30","57","33","33","0",""
"null","null","clear_screen","canvas-keyboard-response","394","678517","0.0-11.0-1.191","108","2022-3-25","14:36:53","0","20","[""White""]","No","Female","970395","","","","","","","","256","30","57","33","33","",""
"2559","7","rating","canvas-keyboard-response","395","681088","0.0-11.0-0.192","108","2022-3-25","14:36:53","0","20","[""White""]","No","Female","970395","","","","","","","","284","113","113","33","40","0",""
"null","null","clear_screen","canvas-keyboard-response","396","681349","0.0-11.0-1.192","108","2022-3-25","14:36:53","0","20","[""White""]","No","Female","970395","","","","","","","","284","113","113","33","40","",""
"2066","2","rating","canvas-keyboard-response","397","683431","0.0-11.0-0.193","108","2022-3-25","14:36:53","0","20","[""White""]","No","Female","970395","","","","","","","","7","30","85","10","17","0",""
"null","null","clear_screen","canvas-keyboard-response","398","683694","0.0-11.0-1.193","108","2022-3-25","14:36:53","0","20","[""White""]","No","Female","970395","","","","","","","","7","30","85","10","17","",""
"3919","5","rating","canvas-keyboard-response","399","687624","0.0-11.0-0.194","108","2022-3-25","14:36:53","0","20","[""White""]","No","Female","970395","","","","","","","","30","57","85","10","17","0",""
"null","null","clear_screen","canvas-keyboard-response","400","687884","0.0-11.0-1.194","108","2022-3-25","14:36:53","0","20","[""White""]","No","Female","970395","","","","","","","","30","57","85","10","17","",""
"4224","3","rating","canvas-keyboard-response","401","692120","0.0-11.0-0.195","108","2022-3-25","14:36:53","0","20","[""White""]","No","Female","970395","","","","","","","","89","113","113","10","40","0",""
"null","null","clear_screen","canvas-keyboard-response","402","692380","0.0-11.0-1.195","108","2022-3-25","14:36:53","0","20","[""White""]","No","Female","970395","","","","","","","","89","113","113","10","40","",""
"2273","7","rating","canvas-keyboard-response","403","694664","0.0-11.0-0.196","108","2022-3-25","14:36:53","0","20","[""White""]","No","Female","970395","","","","","","","","290","140","140","33","40","1",""
"null","null","clear_screen","canvas-keyboard-response","404","694926","0.0-11.0-1.196","108","2022-3-25","14:36:53","0","20","[""White""]","No","Female","970395","","","","","","","","290","140","140","33","40","",""
"1472","3","rating","canvas-keyboard-response","405","696408","0.0-11.0-0.197","108","2022-3-25","14:36:53","0","20","[""White""]","No","Female","970395","","","","","","","","262","30","85","33","40","1",""
"null","null","clear_screen","canvas-keyboard-response","406","696667","0.0-11.0-1.197","108","2022-3-25","14:36:53","0","20","[""White""]","No","Female","970395","","","","","","","","262","30","85","33","40","",""
"1400","3","rating","canvas-keyboard-response","407","698080","0.0-11.0-0.198","108","2022-3-25","14:36:53","0","20","[""White""]","No","Female","970395","","","","","","","","162","85","85","17","40","0",""
"null","null","clear_screen","canvas-keyboard-response","408","698341","0.0-11.0-1.198","108","2022-3-25","14:36:53","0","20","[""White""]","No","Female","970395","","","","","","","","162","85","85","17","40","",""
"1871","2","rating","canvas-keyboard-response","409","700225","0.0-11.0-0.199","108","2022-3-25","14:36:53","0","20","[""White""]","No","Female","970395","","","","","","","","222","57","140","25","40","0",""
"null","null","clear_screen","canvas-keyboard-response","410","700488","0.0-11.0-1.199","108","2022-3-25","14:36:53","0","20","[""White""]","No","Female","970395","","","","","","","","222","57","140","25","40","",""
"2191","3","rating","canvas-keyboard-response","411","702696","0.0-11.0-0.200","108","2022-3-25","14:36:53","0","20","[""White""]","No","Female","970395","","","","","","","","279","85","140","33","40","1",""
"null","null","clear_screen","canvas-keyboard-response","412","702956","0.0-11.0-1.200","108","2022-3-25","14:36:53","0","20","[""White""]","No","Female","970395","","","","","","","","279","85","140","33","40","",""
"2517","5","rating","canvas-keyboard-response","413","705488","0.0-11.0-0.201","108","2022-3-25","14:36:53","0","20","[""White""]","No","Female","970395","","","","","","","","273","85","113","33","33","1",""
"null","null","clear_screen","canvas-keyboard-response","414","705749","0.0-11.0-1.201","108","2022-3-25","14:36:53","0","20","[""White""]","No","Female","970395","","","","","","","","273","85","113","33","33","",""
"1647","4","rating","canvas-keyboard-response","415","707408","0.0-11.0-0.202","108","2022-3-25","14:36:53","0","20","[""White""]","No","Female","970395","","","","","","","","149","85","140","17","17","1",""
"null","null","clear_screen","canvas-keyboard-response","416","707668","0.0-11.0-1.202","108","2022-3-25","14:36:53","0","20","[""White""]","No","Female","970395","","","","","","","","149","85","140","17","17","",""
"1789","4","rating","canvas-keyboard-response","417","709471","0.0-11.0-0.203","108","2022-3-25","14:36:53","0","20","[""White""]","No","Female","970395","","","","","","","","280","113","140","33","33","0",""
"null","null","clear_screen","canvas-keyboard-response","418","709733","0.0-11.0-1.203","108","2022-3-25","14:36:53","0","20","[""White""]","No","Female","970395","","","","","","","","280","113","140","33","33","",""
"2061","7","rating","canvas-keyboard-response","419","711808","0.0-11.0-0.204","108","2022-3-25","14:36:53","0","20","[""White""]","No","Female","970395","","","","","","","","70","113","140","10","10","0",""
"null","null","clear_screen","canvas-keyboard-response","420","712070","0.0-11.0-1.204","108","2022-3-25","14:36:53","0","20","[""White""]","No","Female","970395","","","","","","","","70","113","140","10","10","",""
"1324","5","rating","canvas-keyboard-response","421","713408","0.0-11.0-0.205","108","2022-3-25","14:36:53","0","20","[""White""]","No","Female","970395","","","","","","","","159","85","140","17","33","0",""
"null","null","clear_screen","canvas-keyboard-response","422","713670","0.0-11.0-1.205","108","2022-3-25","14:36:53","0","20","[""White""]","No","Female","970395","","","","","","","","159","85","140","17","33","",""
"1648","3","rating","canvas-keyboard-response","423","715328","0.0-11.0-0.206","108","2022-3-25","14:36:53","0","20","[""White""]","No","Female","970395","","","","","","","","46","57","113","10","40","1",""
"null","null","clear_screen","canvas-keyboard-response","424","715589","0.0-11.0-1.206","108","2022-3-25","14:36:53","0","20","[""White""]","No","Female","970395","","","","","","","","46","57","113","10","40","",""
"6359","6","rating","canvas-keyboard-response","425","721961","0.0-11.0-0.207","108","2022-3-25","14:36:53","0","20","[""White""]","No","Female","970395","","","","","","","","165","113","140","17","17","1",""
"null","null","clear_screen","canvas-keyboard-response","426","722223","0.0-11.0-1.207","108","2022-3-25","14:36:53","0","20","[""White""]","No","Female","970395","","","","","","","","165","113","140","17","17","",""
"1795","7","rating","canvas-keyboard-response","427","724032","0.0-11.0-0.208","108","2022-3-25","14:36:53","0","20","[""White""]","No","Female","970395","","","","","","","","278","85","113","33","40","1",""
"null","null","clear_screen","canvas-keyboard-response","428","724295","0.0-11.0-1.208","108","2022-3-25","14:36:53","0","20","[""White""]","No","Female","970395","","","","","","","","278","85","113","33","40","",""
"2572","2","rating","canvas-keyboard-response","429","726880","0.0-11.0-0.209","108","2022-3-25","14:36:53","0","20","[""White""]","No","Female","970395","","","","","","","","218","57","30","25","40","1",""
"null","null","clear_screen","canvas-keyboard-response","430","727139","0.0-11.0-1.209","108","2022-3-25","14:36:53","0","20","[""White""]","No","Female","970395","","","","","","","","218","57","30","25","40","",""
"4046","4","rating","canvas-keyboard-response","431","731200","0.0-11.0-0.210","108","2022-3-25","14:36:53","0","20","[""White""]","No","Female","970395","","","","","","","","195","140","140","17","40","0",""
"null","null","clear_screen","canvas-keyboard-response","432","731460","0.0-11.0-1.210","108","2022-3-25","14:36:53","0","20","[""White""]","No","Female","970395","","","","","","","","195","140","140","17","40","",""
"1248","1","rating","canvas-keyboard-response","433","732721","0.0-11.0-0.211","108","2022-3-25","14:36:53","0","20","[""White""]","No","Female","970395","","","","","","","","199","30","140","25","25","0",""
"null","null","clear_screen","canvas-keyboard-response","434","732982","0.0-11.0-1.211","108","2022-3-25","14:36:53","0","20","[""White""]","No","Female","970395","","","","","","","","199","30","140","25","25","",""
"8476","4","rating","canvas-keyboard-response","435","741472","0.0-11.0-0.212","108","2022-3-25","14:36:53","0","20","[""White""]","No","Female","970395","","","","","","","","228","85","113","25","33","1",""
"null","null","clear_screen","canvas-keyboard-response","436","741733","0.0-11.0-1.212","108","2022-3-25","14:36:53","0","20","[""White""]","No","Female","970395","","","","","","","","228","85","113","25","33","",""
"1428","2","rating","canvas-keyboard-response","437","743176","0.0-11.0-0.213","108","2022-3-25","14:36:53","0","20","[""White""]","No","Female","970395","","","","","","","","102","140","57","10","33","1",""
"null","null","clear_screen","canvas-keyboard-response","438","743435","0.0-11.0-1.213","108","2022-3-25","14:36:53","0","20","[""White""]","No","Female","970395","","","","","","","","102","140","57","10","33","",""
"1794","6","rating","canvas-keyboard-response","439","745240","0.0-11.0-0.214","108","2022-3-25","14:36:53","0","20","[""White""]","No","Female","970395","","","","","","","","169","113","113","17","25","1",""
"null","null","clear_screen","canvas-keyboard-response","440","745502","0.0-11.0-1.214","108","2022-3-25","14:36:53","0","20","[""White""]","No","Female","970395","","","","","","","","169","113","113","17","25","",""
"1176","1","rating","canvas-keyboard-response","441","746688","0.0-11.0-0.215","108","2022-3-25","14:36:53","0","20","[""White""]","No","Female","970395","","","","","","","","8","30","113","10","17","0",""
"null","null","clear_screen","canvas-keyboard-response","442","746948","0.0-11.0-1.215","108","2022-3-25","14:36:53","0","20","[""White""]","No","Female","970395","","","","","","","","8","30","113","10","17","",""
"1846","5","rating","canvas-keyboard-response","443","748808","0.0-11.0-0.216","108","2022-3-25","14:36:53","0","20","[""White""]","No","Female","970395","","","","","","","","84","113","113","10","33","1",""
"null","null","clear_screen","canvas-keyboard-response","444","749067","0.0-11.0-1.216","108","2022-3-25","14:36:53","0","20","[""White""]","No","Female","970395","","","","","","","","84","113","113","10","33","",""
"3031","3","rating","canvas-keyboard-response","445","752104","0.0-11.0-0.217","108","2022-3-25","14:36:53","0","20","[""White""]","No","Female","970395","","","","","","","","117","30","85","17","25","0",""
"null","null","clear_screen","canvas-keyboard-response","446","752364","0.0-11.0-1.217","108","2022-3-25","14:36:53","0","20","[""White""]","No","Female","970395","","","","","","","","117","30","85","17","25","",""
"1894","7","rating","canvas-keyboard-response","447","754272","0.0-11.0-0.218","108","2022-3-25","14:36:53","0","20","[""White""]","No","Female","970395","","","","","","","","283","113","85","33","40","0",""
"null","null","clear_screen","canvas-keyboard-response","448","754534","0.0-11.0-1.218","108","2022-3-25","14:36:53","0","20","[""White""]","No","Female","970395","","","","","","","","283","113","85","33","40","",""
"1172","1","rating","canvas-keyboard-response","449","755720","0.0-11.0-0.219","108","2022-3-25","14:36:53","0","20","[""White""]","No","Female","970395","","","","","","","","294","30","140","40","40","1",""
"null","null","clear_screen","canvas-keyboard-response","450","755979","0.0-11.0-1.219","108","2022-3-25","14:36:53","0","20","[""White""]","No","Female","970395","","","","","","","","294","30","140","40","40","",""
"1826","3","rating","canvas-keyboard-response","451","757815","0.0-11.0-0.220","108","2022-3-25","14:36:53","0","20","[""White""]","No","Female","970395","","","","","","","","22","30","85","10","40","1",""
"null","null","clear_screen","canvas-keyboard-response","452","758076","0.0-11.0-1.220","108","2022-3-25","14:36:53","0","20","[""White""]","No","Female","970395","","","","","","","","22","30","85","10","40","",""
"1253","3","rating","canvas-keyboard-response","453","759343","0.0-11.0-0.221","108","2022-3-25","14:36:53","0","20","[""White""]","No","Female","970395","","","","","","","","197","30","85","25","25","1",""
"null","null","clear_screen","canvas-keyboard-response","454","759606","0.0-11.0-1.221","108","2022-3-25","14:36:53","0","20","[""White""]","No","Female","970395","","","","","","","","197","30","85","25","25","",""
"583","3","rating","canvas-keyboard-response","455","760200","0.0-11.0-0.222","108","2022-3-25","14:36:53","0","20","[""White""]","No","Female","970395","","","","","","","","225","85","30","25","33","0",""
"null","null","clear_screen","canvas-keyboard-response","456","760460","0.0-11.0-1.222","108","2022-3-25","14:36:53","0","20","[""White""]","No","Female","970395","","","","","","","","225","85","30","25","33","",""
"1871","3","rating","canvas-keyboard-response","457","762344","0.0-11.0-0.223","108","2022-3-25","14:36:53","0","20","[""White""]","No","Female","970395","","","","","","","","267","57","140","33","33","1",""
"null","null","clear_screen","canvas-keyboard-response","458","762605","0.0-11.0-1.223","108","2022-3-25","14:36:53","0","20","[""White""]","No","Female","970395","","","","","","","","267","57","140","33","33","",""
"1689","3","rating","canvas-keyboard-response","459","764304","0.0-11.0-0.224","108","2022-3-25","14:36:53","0","20","[""White""]","No","Female","970395","","","","","","","","98","140","85","10","25","1",""
"null","null","clear_screen","canvas-keyboard-response","460","764568","0.0-11.0-1.224","108","2022-3-25","14:36:53","0","20","[""White""]","No","Female","970395","","","","","","","","98","140","85","10","25","",""
"2897","4","rating","canvas-keyboard-response","461","767481","0.0-11.0-0.225","108","2022-3-25","14:36:53","0","20","[""White""]","No","Female","970395","","","","","","","","300","113","140","40","40","0",""
"null","null","clear_screen","canvas-keyboard-response","462","767743","0.0-11.0-1.225","108","2022-3-25","14:36:53","0","20","[""White""]","No","Female","970395","","","","","","","","300","113","140","40","40","",""
"2596","8","rating","canvas-keyboard-response","463","770352","0.0-11.0-0.226","108","2022-3-25","14:36:53","0","20","[""White""]","No","Female","970395","","","","","","","","134","57","57","17","25","0",""
"null","null","clear_screen","canvas-keyboard-response","464","770614","0.0-11.0-1.226","108","2022-3-25","14:36:53","0","20","[""White""]","No","Female","970395","","","","","","","","134","57","57","17","25","",""
"1758","3","rating","canvas-keyboard-response","465","772384","0.0-11.0-0.227","108","2022-3-25","14:36:53","0","20","[""White""]","No","Female","970395","","","","","","","","97","140","57","10","25","1",""
