"rt","response","trialType","trial_type","trial_index","time_elapsed","internal_node_id","sub_n","date","time","leftRight","age","race","ethnicity","gender","exp_duration","success","timeout","failed_images","failed_audio","failed_video","stimulus","view_history","trialID","radius_a","radius_b","angle_a","angle_b","lrCond","question_order"
"30622","{""response"":""114""}","enter-sub-number","survey-html-form","0","30636","0.0-0.0","114","2022-3-30","13:41:2","0","19","[""Black or African-American""]","No","Male","3898167","","","","","","","","","","","","","",""
"","","","fullscreen","1","32476","0.0-1.0","114","2022-3-30","13:41:2","0","19","[""Black or African-American""]","No","Male","3898167","true","","","","","","","","","","","","",""
"","","","preload","2","32502","0.0-2.0","114","2022-3-30","13:41:2","0","19","[""Black or African-American""]","No","Male","3898167","true","false","[]","[]","[]","","","","","","","","",""
"3120567","0","","html-button-response","3","3153072","0.0-3.0","114","2022-3-30","13:41:2","0","19","[""Black or African-American""]","No","Male","3898167","","","","","","<div style= ""font-size:25px;"" <p> <strong> Welcome to the experiment! </strong><br> <p style=""color:#8B0000; font-size:25px;""><strong> Please do NOT exit full screen until you are done with the experiment. </strong> </p><p style=""font-size:25px;color:#8B0000;""> <strong> The experiment will be canceled and your data will be lost <br> if you try to go back or refresh the page at any point during the experiment.</strong> </p><br><p> <strong> Thanks in advance for your contribution to our research! </strong></p>","","","","","","","",""
"16187","","","instructions","4","3169263","0.0-4.0","114","2022-3-30","13:41:2","0","19","[""Black or African-American""]","No","Male","3898167","","","","","","","[{""page_index"":0,""viewing_time"":8802},{""page_index"":1,""viewing_time"":2249},{""page_index"":2,""viewing_time"":5135}]","","","","","","",""
"null","null","presentPop","canvas-keyboard-response","5","3185277","0.0-5.0","114","2022-3-30","13:41:2","0","19","[""Black or African-American""]","No","Male","3898167","","","","","","","","","","","","","",""
"null","null","clear_screen","canvas-keyboard-response","6","3186038","0.0-6.0","114","2022-3-30","13:41:2","0","19","[""Black or African-American""]","No","Male","3898167","","","","","","","","","","","","","",""
"1912","","","instructions","7","3187951","0.0-7.0","114","2022-3-30","13:41:2","0","19","[""Black or African-American""]","No","Male","3898167","","","","","","","[{""page_index"":0,""viewing_time"":1912}]","","","","","","",""
"null","null","presentPop","canvas-keyboard-response","8","3203962","0.0-8.0","114","2022-3-30","13:41:2","0","19","[""Black or African-American""]","No","Male","3898167","","","","","","","","","","","","","",""
"null","null","clear_screen","canvas-keyboard-response","9","3204721","0.0-9.0","114","2022-3-30","13:41:2","0","19","[""Black or African-American""]","No","Male","3898167","","","","","","","","","","","","","",""
"5612","","","instructions","10","3210334","0.0-10.0","114","2022-3-30","13:41:2","0","19","[""Black or African-American""]","No","Male","3898167","","","","","","","[{""page_index"":0,""viewing_time"":2115},{""page_index"":1,""viewing_time"":3497}]","","","","","","",""
"4706","4","rating","canvas-keyboard-response","11","3216055","0.0-11.0-0.0","114","2022-3-30","13:41:2","0","19","[""Black or African-American""]","No","Male","3898167","","","","","","","","118","30","113","17","25","0",""
"null","null","clear_screen","canvas-keyboard-response","12","3216314","0.0-11.0-1.0","114","2022-3-30","13:41:2","0","19","[""Black or African-American""]","No","Male","3898167","","","","","","","","118","30","113","17","25","",""
"3523","4","rating","canvas-keyboard-response","13","3219847","0.0-11.0-0.1","114","2022-3-30","13:41:2","0","19","[""Black or African-American""]","No","Male","3898167","","","","","","","","58","85","113","10","25","1",""
"null","null","clear_screen","canvas-keyboard-response","14","3220106","0.0-11.0-1.1","114","2022-3-30","13:41:2","0","19","[""Black or African-American""]","No","Male","3898167","","","","","","","","58","85","113","10","25","",""
"3074","3","rating","canvas-keyboard-response","15","3223192","0.0-11.0-0.2","114","2022-3-30","13:41:2","0","19","[""Black or African-American""]","No","Male","3898167","","","","","","","","206","30","57","25","40","0",""
"null","null","clear_screen","canvas-keyboard-response","16","3223453","0.0-11.0-1.2","114","2022-3-30","13:41:2","0","19","[""Black or African-American""]","No","Male","3898167","","","","","","","","206","30","57","25","40","",""
"3741","3","rating","canvas-keyboard-response","17","3227207","0.0-11.0-0.3","114","2022-3-30","13:41:2","0","19","[""Black or African-American""]","No","Male","3898167","","","","","","","","199","30","140","25","25","0",""
"null","null","clear_screen","canvas-keyboard-response","18","3227466","0.0-11.0-1.3","114","2022-3-30","13:41:2","0","19","[""Black or African-American""]","No","Male","3898167","","","","","","","","199","30","140","25","25","",""
"1985","2","rating","canvas-keyboard-response","19","3229463","0.0-11.0-0.4","114","2022-3-30","13:41:2","0","19","[""Black or African-American""]","No","Male","3898167","","","","","","","","97","140","57","10","25","0",""
"null","null","clear_screen","canvas-keyboard-response","20","3229722","0.0-11.0-1.4","114","2022-3-30","13:41:2","0","19","[""Black or African-American""]","No","Male","3898167","","","","","","","","97","140","57","10","25","",""
"2099","8","rating","canvas-keyboard-response","21","3231830","0.0-11.0-0.5","114","2022-3-30","13:41:2","0","19","[""Black or African-American""]","No","Male","3898167","","","","","","","","115","30","30","17","25","1",""
"null","null","clear_screen","canvas-keyboard-response","22","3232089","0.0-11.0-1.5","114","2022-3-30","13:41:2","0","19","[""Black or African-American""]","No","Male","3898167","","","","","","","","115","30","30","17","25","",""
"1644","5","rating","canvas-keyboard-response","23","3233743","0.0-11.0-0.6","114","2022-3-30","13:41:2","0","19","[""Black or African-American""]","No","Male","3898167","","","","","","","","217","57","140","25","33","1",""
"null","null","clear_screen","canvas-keyboard-response","24","3234001","0.0-11.0-1.6","114","2022-3-30","13:41:2","0","19","[""Black or African-American""]","No","Male","3898167","","","","","","","","217","57","140","25","33","",""
"4059","7","rating","canvas-keyboard-response","25","3238071","0.0-11.0-0.7","114","2022-3-30","13:41:2","0","19","[""Black or African-American""]","No","Male","3898167","","","","","","","","11","30","57","10","25","0",""
"null","null","clear_screen","canvas-keyboard-response","26","3238330","0.0-11.0-1.7","114","2022-3-30","13:41:2","0","19","[""Black or African-American""]","No","Male","3898167","","","","","","","","11","30","57","10","25","",""
"3650","4","rating","canvas-keyboard-response","27","3241990","0.0-11.0-0.8","114","2022-3-30","13:41:2","0","19","[""Black or African-American""]","No","Male","3898167","","","","","","","","106","140","30","10","40","1",""
"null","null","clear_screen","canvas-keyboard-response","28","3242250","0.0-11.0-1.8","114","2022-3-30","13:41:2","0","19","[""Black or African-American""]","No","Male","3898167","","","","","","","","106","140","30","10","40","",""
"2611","5","rating","canvas-keyboard-response","29","3244870","0.0-11.0-0.9","114","2022-3-30","13:41:2","0","19","[""Black or African-American""]","No","Male","3898167","","","","","","","","146","57","113","17","40","0",""
"null","null","clear_screen","canvas-keyboard-response","30","3245134","0.0-11.0-1.9","114","2022-3-30","13:41:2","0","19","[""Black or African-American""]","No","Male","3898167","","","","","","","","146","57","113","17","40","",""
"3309","6","rating","canvas-keyboard-response","31","3248454","0.0-11.0-0.10","114","2022-3-30","13:41:2","0","19","[""Black or African-American""]","No","Male","3898167","","","","","","","","162","85","85","17","40","1",""
"null","null","clear_screen","canvas-keyboard-response","32","3248713","0.0-11.0-1.10","114","2022-3-30","13:41:2","0","19","[""Black or African-American""]","No","Male","3898167","","","","","","","","162","85","85","17","40","",""
"1738","6","rating","canvas-keyboard-response","33","3250462","0.0-11.0-0.11","114","2022-3-30","13:41:2","0","19","[""Black or African-American""]","No","Male","3898167","","","","","","","","52","85","85","10","17","1",""
"null","null","clear_screen","canvas-keyboard-response","34","3250720","0.0-11.0-1.11","114","2022-3-30","13:41:2","0","19","[""Black or African-American""]","No","Male","3898167","","","","","","","","52","85","85","10","17","",""
"1610","2","rating","canvas-keyboard-response","35","3252342","0.0-11.0-0.12","114","2022-3-30","13:41:2","0","19","[""Black or African-American""]","No","Male","3898167","","","","","","","","37","57","140","10","25","0",""
"null","null","clear_screen","canvas-keyboard-response","36","3252599","0.0-11.0-1.12","114","2022-3-30","13:41:2","0","19","[""Black or African-American""]","No","Male","3898167","","","","","","","","37","57","140","10","25","",""
"4220","6","rating","canvas-keyboard-response","37","3256830","0.0-11.0-0.13","114","2022-3-30","13:41:2","0","19","[""Black or African-American""]","No","Male","3898167","","","","","","","","170","113","140","17","25","0",""
"null","null","clear_screen","canvas-keyboard-response","38","3257088","0.0-11.0-1.13","114","2022-3-30","13:41:2","0","19","[""Black or African-American""]","No","Male","3898167","","","","","","","","170","113","140","17","25","",""
"3068","5","rating","canvas-keyboard-response","39","3260166","0.0-11.0-0.14","114","2022-3-30","13:41:2","0","19","[""Black or African-American""]","No","Male","3898167","","","","","","","","184","140","113","17","25","0",""
"null","null","clear_screen","canvas-keyboard-response","40","3260424","0.0-11.0-1.14","114","2022-3-30","13:41:2","0","19","[""Black or African-American""]","No","Male","3898167","","","","","","","","184","140","113","17","25","",""
"3165","7","rating","canvas-keyboard-response","41","3263598","0.0-11.0-0.15","114","2022-3-30","13:41:2","0","19","[""Black or African-American""]","No","Male","3898167","","","","","","","","291","30","57","40","40","0",""
"null","null","clear_screen","canvas-keyboard-response","42","3263856","0.0-11.0-1.15","114","2022-3-30","13:41:2","0","19","[""Black or African-American""]","No","Male","3898167","","","","","","","","291","30","57","40","40","",""
"3988","6","rating","canvas-keyboard-response","43","3267855","0.0-11.0-0.16","114","2022-3-30","13:41:2","0","19","[""Black or African-American""]","No","Male","3898167","","","","","","","","193","140","85","17","40","1",""
"null","null","clear_screen","canvas-keyboard-response","44","3268113","0.0-11.0-1.16","114","2022-3-30","13:41:2","0","19","[""Black or African-American""]","No","Male","3898167","","","","","","","","193","140","85","17","40","",""
"3459","7","rating","canvas-keyboard-response","45","3271582","0.0-11.0-0.17","114","2022-3-30","13:41:2","0","19","[""Black or African-American""]","No","Male","3898167","","","","","","","","177","113","57","17","40","0",""
"null","null","clear_screen","canvas-keyboard-response","46","3271840","0.0-11.0-1.17","114","2022-3-30","13:41:2","0","19","[""Black or African-American""]","No","Male","3898167","","","","","","","","177","113","57","17","40","",""
"2559","5","rating","canvas-keyboard-response","47","3274414","0.0-11.0-0.18","114","2022-3-30","13:41:2","0","19","[""Black or African-American""]","No","Male","3898167","","","","","","","","156","85","57","17","33","0",""
"null","null","clear_screen","canvas-keyboard-response","48","3274672","0.0-11.0-1.18","114","2022-3-30","13:41:2","0","19","[""Black or African-American""]","No","Male","3898167","","","","","","","","156","85","57","17","33","",""
"3355","6","rating","canvas-keyboard-response","49","3278039","0.0-11.0-0.19","114","2022-3-30","13:41:2","0","19","[""Black or African-American""]","No","Male","3898167","","","","","","","","80","113","140","10","25","1",""
"null","null","clear_screen","canvas-keyboard-response","50","3278296","0.0-11.0-1.19","114","2022-3-30","13:41:2","0","19","[""Black or African-American""]","No","Male","3898167","","","","","","","","80","113","140","10","25","",""
"1916","6","rating","canvas-keyboard-response","51","3280223","0.0-11.0-0.20","114","2022-3-30","13:41:2","0","19","[""Black or African-American""]","No","Male","3898167","","","","","","","","36","57","113","10","25","1",""
"null","null","clear_screen","canvas-keyboard-response","52","3280484","0.0-11.0-1.20","114","2022-3-30","13:41:2","0","19","[""Black or African-American""]","No","Male","3898167","","","","","","","","36","57","113","10","25","",""
"2415","8","rating","canvas-keyboard-response","53","3282911","0.0-11.0-0.21","114","2022-3-30","13:41:2","0","19","[""Black or African-American""]","No","Male","3898167","","","","","","","","167","113","57","17","25","0",""
"null","null","clear_screen","canvas-keyboard-response","54","3283170","0.0-11.0-1.21","114","2022-3-30","13:41:2","0","19","[""Black or African-American""]","No","Male","3898167","","","","","","","","167","113","57","17","25","",""
"2793","5","rating","canvas-keyboard-response","55","3285974","0.0-11.0-0.22","114","2022-3-30","13:41:2","0","19","[""Black or African-American""]","No","Male","3898167","","","","","","","","83","113","85","10","33","1",""
"null","null","clear_screen","canvas-keyboard-response","56","3286233","0.0-11.0-1.22","114","2022-3-30","13:41:2","0","19","[""Black or African-American""]","No","Male","3898167","","","","","","","","83","113","85","10","33","",""
"4185","4","rating","canvas-keyboard-response","57","3290430","0.0-11.0-0.23","114","2022-3-30","13:41:2","0","19","[""Black or African-American""]","No","Male","3898167","","","","","","","","99","140","113","10","25","0",""
"null","null","clear_screen","canvas-keyboard-response","58","3290689","0.0-11.0-1.23","114","2022-3-30","13:41:2","0","19","[""Black or African-American""]","No","Male","3898167","","","","","","","","99","140","113","10","25","",""
"3954","5","rating","canvas-keyboard-response","59","3294654","0.0-11.0-0.24","114","2022-3-30","13:41:2","0","19","[""Black or African-American""]","No","Male","3898167","","","","","","","","215","57","85","25","33","0",""
"null","null","clear_screen","canvas-keyboard-response","60","3294912","0.0-11.0-1.24","114","2022-3-30","13:41:2","0","19","[""Black or African-American""]","No","Male","3898167","","","","","","","","215","57","85","25","33","",""
"2467","3","rating","canvas-keyboard-response","61","3297390","0.0-11.0-0.25","114","2022-3-30","13:41:2","0","19","[""Black or African-American""]","No","Male","3898167","","","","","","","","14","30","140","10","25","1",""
"null","null","clear_screen","canvas-keyboard-response","62","3297650","0.0-11.0-1.25","114","2022-3-30","13:41:2","0","19","[""Black or African-American""]","No","Male","3898167","","","","","","","","14","30","140","10","25","",""
"3009","5","rating","canvas-keyboard-response","63","3300670","0.0-11.0-0.26","114","2022-3-30","13:41:2","0","19","[""Black or African-American""]","No","Male","3898167","","","","","","","","274","85","140","33","33","1",""
"null","null","clear_screen","canvas-keyboard-response","64","3300929","0.0-11.0-1.26","114","2022-3-30","13:41:2","0","19","[""Black or African-American""]","No","Male","3898167","","","","","","","","274","85","140","33","33","",""
"3379","4","rating","canvas-keyboard-response","65","3304318","0.0-11.0-0.27","114","2022-3-30","13:41:2","0","19","[""Black or African-American""]","No","Male","3898167","","","","","","","","244","113","113","25","40","1",""
"null","null","clear_screen","canvas-keyboard-response","66","3304577","0.0-11.0-1.27","114","2022-3-30","13:41:2","0","19","[""Black or African-American""]","No","Male","3898167","","","","","","","","244","113","113","25","40","",""
"2260","2","rating","canvas-keyboard-response","67","3306845","0.0-11.0-0.28","114","2022-3-30","13:41:2","0","19","[""Black or African-American""]","No","Male","3898167","","","","","","","","251","140","30","25","40","1",""
"null","null","clear_screen","canvas-keyboard-response","68","3307104","0.0-11.0-1.28","114","2022-3-30","13:41:2","0","19","[""Black or African-American""]","No","Male","3898167","","","","","","","","251","140","30","25","40","",""
"3156","5","rating","canvas-keyboard-response","69","3310269","0.0-11.0-0.29","114","2022-3-30","13:41:2","0","19","[""Black or African-American""]","No","Male","3898167","","","","","","","","56","85","57","10","25","0",""
"null","null","clear_screen","canvas-keyboard-response","70","3310528","0.0-11.0-1.29","114","2022-3-30","13:41:2","0","19","[""Black or African-American""]","No","Male","3898167","","","","","","","","56","85","57","10","25","",""
"2953","6","rating","canvas-keyboard-response","71","3313494","0.0-11.0-0.30","114","2022-3-30","13:41:2","0","19","[""Black or African-American""]","No","Male","3898167","","","","","","","","257","30","85","33","33","0",""
"null","null","clear_screen","canvas-keyboard-response","72","3313754","0.0-11.0-1.30","114","2022-3-30","13:41:2","0","19","[""Black or African-American""]","No","Male","3898167","","","","","","","","257","30","85","33","33","",""
"3538","2","rating","canvas-keyboard-response","73","3317301","0.0-11.0-0.31","114","2022-3-30","13:41:2","0","19","[""Black or African-American""]","No","Male","3898167","","","","","","","","38","57","30","10","33","0",""
"null","null","clear_screen","canvas-keyboard-response","74","3317560","0.0-11.0-1.31","114","2022-3-30","13:41:2","0","19","[""Black or African-American""]","No","Male","3898167","","","","","","","","38","57","30","10","33","",""
"2852","3","rating","canvas-keyboard-response","75","3320422","0.0-11.0-0.32","114","2022-3-30","13:41:2","0","19","[""Black or African-American""]","No","Male","3898167","","","","","","","","109","140","113","10","40","1",""
"null","null","clear_screen","canvas-keyboard-response","76","3320680","0.0-11.0-1.32","114","2022-3-30","13:41:2","0","19","[""Black or African-American""]","No","Male","3898167","","","","","","","","109","140","113","10","40","",""
"2852","6","rating","canvas-keyboard-response","77","3323542","0.0-11.0-0.33","114","2022-3-30","13:41:2","0","19","[""Black or African-American""]","No","Male","3898167","","","","","","","","292","30","85","40","40","1",""
"null","null","clear_screen","canvas-keyboard-response","78","3323800","0.0-11.0-1.33","114","2022-3-30","13:41:2","0","19","[""Black or African-American""]","No","Male","3898167","","","","","","","","292","30","85","40","40","",""
"3180","2","rating","canvas-keyboard-response","79","3326990","0.0-11.0-0.34","114","2022-3-30","13:41:2","0","19","[""Black or African-American""]","No","Male","3898167","","","","","","","","128","30","113","17","40","0",""
"null","null","clear_screen","canvas-keyboard-response","80","3327248","0.0-11.0-1.34","114","2022-3-30","13:41:2","0","19","[""Black or African-American""]","No","Male","3898167","","","","","","","","128","30","113","17","40","",""
"2132","8","rating","canvas-keyboard-response","81","3329390","0.0-11.0-0.35","114","2022-3-30","13:41:2","0","19","[""Black or African-American""]","No","Male","3898167","","","","","","","","290","140","140","33","40","1",""
"null","null","clear_screen","canvas-keyboard-response","82","3329648","0.0-11.0-1.35","114","2022-3-30","13:41:2","0","19","[""Black or African-American""]","No","Male","3898167","","","","","","","","290","140","140","33","40","",""
"6194","5","rating","canvas-keyboard-response","83","3335853","0.0-11.0-0.36","114","2022-3-30","13:41:2","0","19","[""Black or African-American""]","No","Male","3898167","","","","","","","","247","140","57","25","33","0",""
"null","null","clear_screen","canvas-keyboard-response","84","3336112","0.0-11.0-1.36","114","2022-3-30","13:41:2","0","19","[""Black or African-American""]","No","Male","3898167","","","","","","","","247","140","57","25","33","",""
"3227","7","rating","canvas-keyboard-response","85","3339350","0.0-11.0-0.37","114","2022-3-30","13:41:2","0","19","[""Black or African-American""]","No","Male","3898167","","","","","","","","148","85","113","17","17","1",""
"null","null","clear_screen","canvas-keyboard-response","86","3339607","0.0-11.0-1.37","114","2022-3-30","13:41:2","0","19","[""Black or African-American""]","No","Male","3898167","","","","","","","","148","85","113","17","17","",""
"2353","2","rating","canvas-keyboard-response","87","3341973","0.0-11.0-0.38","114","2022-3-30","13:41:2","0","19","[""Black or African-American""]","No","Male","3898167","","","","","","","","12","30","85","10","25","0",""
"null","null","clear_screen","canvas-keyboard-response","88","3342231","0.0-11.0-1.38","114","2022-3-30","13:41:2","0","19","[""Black or African-American""]","No","Male","3898167","","","","","","","","12","30","85","10","25","",""
"2292","3","rating","canvas-keyboard-response","89","3344533","0.0-11.0-0.39","114","2022-3-30","13:41:2","0","19","[""Black or African-American""]","No","Male","3898167","","","","","","","","143","57","30","17","40","0",""
"null","null","clear_screen","canvas-keyboard-response","90","3344792","0.0-11.0-1.39","114","2022-3-30","13:41:2","0","19","[""Black or African-American""]","No","Male","3898167","","","","","","","","143","57","30","17","40","",""
"2204","5","rating","canvas-keyboard-response","91","3347007","0.0-11.0-0.40","114","2022-3-30","13:41:2","0","19","[""Black or African-American""]","No","Male","3898167","","","","","","","","125","30","30","17","40","0",""
"null","null","clear_screen","canvas-keyboard-response","92","3347268","0.0-11.0-1.40","114","2022-3-30","13:41:2","0","19","[""Black or African-American""]","No","Male","3898167","","","","","","","","125","30","30","17","40","",""
"1165","6","rating","canvas-keyboard-response","93","3348446","0.0-11.0-0.41","114","2022-3-30","13:41:2","0","19","[""Black or African-American""]","No","Male","3898167","","","","","","","","158","85","113","17","33","0",""
"null","null","clear_screen","canvas-keyboard-response","94","3348705","0.0-11.0-1.41","114","2022-3-30","13:41:2","0","19","[""Black or African-American""]","No","Male","3898167","","","","","","","","158","85","113","17","33","",""
"2866","4","rating","canvas-keyboard-response","95","3351582","0.0-11.0-0.42","114","2022-3-30","13:41:2","0","19","[""Black or African-American""]","No","Male","3898167","","","","","","","","149","85","140","17","17","0",""
"null","null","clear_screen","canvas-keyboard-response","96","3351846","0.0-11.0-1.42","114","2022-3-30","13:41:2","0","19","[""Black or African-American""]","No","Male","3898167","","","","","","","","149","85","140","17","17","",""
"3189","2","rating","canvas-keyboard-response","97","3355046","0.0-11.0-0.43","114","2022-3-30","13:41:2","0","19","[""Black or African-American""]","No","Male","3898167","","","","","","","","50","85","30","10","17","1",""
"null","null","clear_screen","canvas-keyboard-response","98","3355304","0.0-11.0-1.43","114","2022-3-30","13:41:2","0","19","[""Black or African-American""]","No","Male","3898167","","","","","","","","50","85","30","10","17","",""
"1515","3","rating","canvas-keyboard-response","99","3356830","0.0-11.0-0.44","114","2022-3-30","13:41:2","0","19","[""Black or African-American""]","No","Male","3898167","","","","","","","","164","85","140","17","40","0",""
"null","null","clear_screen","canvas-keyboard-response","100","3357088","0.0-11.0-1.44","114","2022-3-30","13:41:2","0","19","[""Black or African-American""]","No","Male","3898167","","","","","","","","164","85","140","17","40","",""
"2587","3","rating","canvas-keyboard-response","101","3359686","0.0-11.0-0.45","114","2022-3-30","13:41:2","0","19","[""Black or African-American""]","No","Male","3898167","","","","","","","","204","30","140","25","33","1",""
"null","null","clear_screen","canvas-keyboard-response","102","3359945","0.0-11.0-1.45","114","2022-3-30","13:41:2","0","19","[""Black or African-American""]","No","Male","3898167","","","","","","","","204","30","140","25","33","",""
"1842","2","rating","canvas-keyboard-response","103","3361798","0.0-11.0-0.46","114","2022-3-30","13:41:2","0","19","[""Black or African-American""]","No","Male","3898167","","","","","","","","121","30","57","17","33","0",""
"null","null","clear_screen","canvas-keyboard-response","104","3362056","0.0-11.0-1.46","114","2022-3-30","13:41:2","0","19","[""Black or African-American""]","No","Male","3898167","","","","","","","","121","30","57","17","33","",""
"2578","3","rating","canvas-keyboard-response","105","3364645","0.0-11.0-0.47","114","2022-3-30","13:41:2","0","19","[""Black or African-American""]","No","Male","3898167","","","","","","","","78","113","85","10","25","1",""
"null","null","clear_screen","canvas-keyboard-response","106","3364904","0.0-11.0-1.47","114","2022-3-30","13:41:2","0","19","[""Black or African-American""]","No","Male","3898167","","","","","","","","78","113","85","10","25","",""
"2435","4","rating","canvas-keyboard-response","107","3367350","0.0-11.0-0.48","114","2022-3-30","13:41:2","0","19","[""Black or African-American""]","No","Male","3898167","","","","","","","","74","113","113","10","17","0",""
"null","null","clear_screen","canvas-keyboard-response","108","3367608","0.0-11.0-1.48","114","2022-3-30","13:41:2","0","19","[""Black or African-American""]","No","Male","3898167","","","","","","","","74","113","113","10","17","",""
"4588","5","rating","canvas-keyboard-response","109","3372206","0.0-11.0-0.49","114","2022-3-30","13:41:2","0","19","[""Black or African-American""]","No","Male","3898167","","","","","","","","294","30","140","40","40","1",""
"null","null","clear_screen","canvas-keyboard-response","110","3372467","0.0-11.0-1.49","114","2022-3-30","13:41:2","0","19","[""Black or African-American""]","No","Male","3898167","","","","","","","","294","30","140","40","40","",""
"1640","6","rating","canvas-keyboard-response","111","3374118","0.0-11.0-0.50","114","2022-3-30","13:41:2","0","19","[""Black or African-American""]","No","Male","3898167","","","","","","","","4","30","140","10","10","1",""
"null","null","clear_screen","canvas-keyboard-response","112","3374376","0.0-11.0-1.50","114","2022-3-30","13:41:2","0","19","[""Black or African-American""]","No","Male","3898167","","","","","","","","4","30","140","10","10","",""
"2474","5","rating","canvas-keyboard-response","113","3376861","0.0-11.0-0.51","114","2022-3-30","13:41:2","0","19","[""Black or African-American""]","No","Male","3898167","","","","","","","","49","85","140","10","10","0",""
"null","null","clear_screen","canvas-keyboard-response","114","3377119","0.0-11.0-1.51","114","2022-3-30","13:41:2","0","19","[""Black or African-American""]","No","Male","3898167","","","","","","","","49","85","140","10","10","",""
"4196","4","rating","canvas-keyboard-response","115","3381326","0.0-11.0-0.52","114","2022-3-30","13:41:2","0","19","[""Black or African-American""]","No","Male","3898167","","","","","","","","142","57","140","17","33","1",""
"null","null","clear_screen","canvas-keyboard-response","116","3381583","0.0-11.0-1.52","114","2022-3-30","13:41:2","0","19","[""Black or African-American""]","No","Male","3898167","","","","","","","","142","57","140","17","33","",""
"1972","2","rating","canvas-keyboard-response","117","3383565","0.0-11.0-0.53","114","2022-3-30","13:41:2","0","19","[""Black or African-American""]","No","Male","3898167","","","","","","","","20","30","30","10","40","0",""
"null","null","clear_screen","canvas-keyboard-response","118","3383823","0.0-11.0-1.53","114","2022-3-30","13:41:2","0","19","[""Black or African-American""]","No","Male","3898167","","","","","","","","20","30","30","10","40","",""
"2843","5","rating","canvas-keyboard-response","119","3386678","0.0-11.0-0.54","114","2022-3-30","13:41:2","0","19","[""Black or African-American""]","No","Male","3898167","","","","","","","","132","57","140","17","17","1",""
"null","null","clear_screen","canvas-keyboard-response","120","3386936","0.0-11.0-1.54","114","2022-3-30","13:41:2","0","19","[""Black or African-American""]","No","Male","3898167","","","","","","","","132","57","140","17","17","",""
"2140","4","rating","canvas-keyboard-response","121","3389086","0.0-11.0-0.55","114","2022-3-30","13:41:2","0","19","[""Black or African-American""]","No","Male","3898167","","","","","","","","229","85","140","25","33","0",""
"null","null","clear_screen","canvas-keyboard-response","122","3389344","0.0-11.0-1.55","114","2022-3-30","13:41:2","0","19","[""Black or African-American""]","No","Male","3898167","","","","","","","","229","85","140","25","33","",""
"1803","4","rating","canvas-keyboard-response","123","3391158","0.0-11.0-0.56","114","2022-3-30","13:41:2","0","19","[""Black or African-American""]","No","Male","3898167","","","","","","","","94","140","113","10","17","0",""
"null","null","clear_screen","canvas-keyboard-response","124","3391415","0.0-11.0-1.56","114","2022-3-30","13:41:2","0","19","[""Black or African-American""]","No","Male","3898167","","","","","","","","94","140","113","10","17","",""
"3284","5","rating","canvas-keyboard-response","125","3394709","0.0-11.0-0.57","114","2022-3-30","13:41:2","0","19","[""Black or African-American""]","No","Male","3898167","","","","","","","","54","85","140","10","17","1",""
"null","null","clear_screen","canvas-keyboard-response","126","3394968","0.0-11.0-1.57","114","2022-3-30","13:41:2","0","19","[""Black or African-American""]","No","Male","3898167","","","","","","","","54","85","140","10","17","",""
"2380","4","rating","canvas-keyboard-response","127","3397357","0.0-11.0-0.58","114","2022-3-30","13:41:2","0","19","[""Black or African-American""]","No","Male","3898167","","","","","","","","79","113","113","10","25","0",""
"null","null","clear_screen","canvas-keyboard-response","128","3397615","0.0-11.0-1.58","114","2022-3-30","13:41:2","0","19","[""Black or African-American""]","No","Male","3898167","","","","","","","","79","113","113","10","25","",""
"3396","4","rating","canvas-keyboard-response","129","3401023","0.0-11.0-0.59","114","2022-3-30","13:41:2","0","19","[""Black or African-American""]","No","Male","3898167","","","","","","","","180","113","140","17","40","0",""
"null","null","clear_screen","canvas-keyboard-response","130","3401284","0.0-11.0-1.59","114","2022-3-30","13:41:2","0","19","[""Black or African-American""]","No","Male","3898167","","","","","","","","180","113","140","17","40","",""
"2439","2","rating","canvas-keyboard-response","131","3403734","0.0-11.0-0.60","114","2022-3-30","13:41:2","0","19","[""Black or African-American""]","No","Male","3898167","","","","","","","","248","140","85","25","33","1",""
"null","null","clear_screen","canvas-keyboard-response","132","3403994","0.0-11.0-1.60","114","2022-3-30","13:41:2","0","19","[""Black or African-American""]","No","Male","3898167","","","","","","","","248","140","85","25","33","",""
"5192","5","rating","canvas-keyboard-response","133","3409198","0.0-11.0-0.61","114","2022-3-30","13:41:2","0","19","[""Black or African-American""]","No","Male","3898167","","","","","","","","131","57","113","17","17","0",""
"null","null","clear_screen","canvas-keyboard-response","134","3409457","0.0-11.0-1.61","114","2022-3-30","13:41:2","0","19","[""Black or African-American""]","No","Male","3898167","","","","","","","","131","57","113","17","17","",""
"2338","7","rating","canvas-keyboard-response","135","3411806","0.0-11.0-0.62","114","2022-3-30","13:41:2","0","19","[""Black or African-American""]","No","Male","3898167","","","","","","","","234","85","140","25","40","1",""
"null","null","clear_screen","canvas-keyboard-response","136","3412068","0.0-11.0-1.62","114","2022-3-30","13:41:2","0","19","[""Black or African-American""]","No","Male","3898167","","","","","","","","234","85","140","25","40","",""
"2684","4","rating","canvas-keyboard-response","137","3414766","0.0-11.0-0.63","114","2022-3-30","13:41:2","0","19","[""Black or African-American""]","No","Male","3898167","","","","","","","","186","140","30","17","33","1",""
"null","null","clear_screen","canvas-keyboard-response","138","3415028","0.0-11.0-1.63","114","2022-3-30","13:41:2","0","19","[""Black or African-American""]","No","Male","3898167","","","","","","","","186","140","30","17","33","",""
"3487","4","rating","canvas-keyboard-response","139","3418526","0.0-11.0-0.64","114","2022-3-30","13:41:2","0","19","[""Black or African-American""]","No","Male","3898167","","","","","","","","119","30","140","17","25","1",""
"null","null","clear_screen","canvas-keyboard-response","140","3418790","0.0-11.0-1.64","114","2022-3-30","13:41:2","0","19","[""Black or African-American""]","No","Male","3898167","","","","","","","","119","30","140","17","25","",""
"3228","6","rating","canvas-keyboard-response","141","3422029","0.0-11.0-0.65","114","2022-3-30","13:41:2","0","19","[""Black or African-American""]","No","Male","3898167","","","","","","","","262","30","85","33","40","0",""
"null","null","clear_screen","canvas-keyboard-response","142","3422288","0.0-11.0-1.65","114","2022-3-30","13:41:2","0","19","[""Black or African-American""]","No","Male","3898167","","","","","","","","262","30","85","33","40","",""
"10611","2","rating","canvas-keyboard-response","143","3432909","0.0-11.0-0.66","114","2022-3-30","13:41:2","0","19","[""Black or African-American""]","No","Male","3898167","","","","","","","","261","30","57","33","40","1",""
"null","null","clear_screen","canvas-keyboard-response","144","3433167","0.0-11.0-1.66","114","2022-3-30","13:41:2","0","19","[""Black or African-American""]","No","Male","3898167","","","","","","","","261","30","57","33","40","",""
"3395","6","rating","canvas-keyboard-response","145","3436573","0.0-11.0-0.67","114","2022-3-30","13:41:2","0","19","[""Black or African-American""]","No","Male","3898167","","","","","","","","219","57","57","25","40","1",""
"null","null","clear_screen","canvas-keyboard-response","146","3436832","0.0-11.0-1.67","114","2022-3-30","13:41:2","0","19","[""Black or African-American""]","No","Male","3898167","","","","","","","","219","57","57","25","40","",""
"1404","2","rating","canvas-keyboard-response","147","3438245","0.0-11.0-0.68","114","2022-3-30","13:41:2","0","19","[""Black or African-American""]","No","Male","3898167","","","","","","","","15","30","30","10","33","1",""
"null","null","clear_screen","canvas-keyboard-response","148","3438504","0.0-11.0-1.68","114","2022-3-30","13:41:2","0","19","[""Black or African-American""]","No","Male","3898167","","","","","","","","15","30","30","10","33","",""
"1332","3","rating","canvas-keyboard-response","149","3439845","0.0-11.0-0.69","114","2022-3-30","13:41:2","0","19","[""Black or African-American""]","No","Male","3898167","","","","","","","","144","57","57","17","40","0",""
"null","null","clear_screen","canvas-keyboard-response","150","3440104","0.0-11.0-1.69","114","2022-3-30","13:41:2","0","19","[""Black or African-American""]","No","Male","3898167","","","","","","","","144","57","57","17","40","",""
"1473","8","rating","canvas-keyboard-response","151","3441589","0.0-11.0-0.70","114","2022-3-30","13:41:2","0","19","[""Black or African-American""]","No","Male","3898167","","","","","","","","250","140","140","25","33","1",""
"null","null","clear_screen","canvas-keyboard-response","152","3441847","0.0-11.0-1.70","114","2022-3-30","13:41:2","0","19","[""Black or African-American""]","No","Male","3898167","","","","","","","","250","140","140","25","33","",""
"1475","2","rating","canvas-keyboard-response","153","3443333","0.0-11.0-0.71","114","2022-3-30","13:41:2","0","19","[""Black or African-American""]","No","Male","3898167","","","","","","","","47","57","140","10","40","1",""
"null","null","clear_screen","canvas-keyboard-response","154","3443592","0.0-11.0-1.71","114","2022-3-30","13:41:2","0","19","[""Black or African-American""]","No","Male","3898167","","","","","","","","47","57","140","10","40","",""
"1912","5","rating","canvas-keyboard-response","155","3445517","0.0-11.0-0.72","114","2022-3-30","13:41:2","0","19","[""Black or African-American""]","No","Male","3898167","","","","","","","","82","113","57","10","33","1",""
"null","null","clear_screen","canvas-keyboard-response","156","3445777","0.0-11.0-1.72","114","2022-3-30","13:41:2","0","19","[""Black or African-American""]","No","Male","3898167","","","","","","","","82","113","57","10","33","",""
"642","4","rating","canvas-keyboard-response","157","3446429","0.0-11.0-0.73","114","2022-3-30","13:41:2","0","19","[""Black or African-American""]","No","Male","3898167","","","","","","","","23","30","113","10","40","1",""
"null","null","clear_screen","canvas-keyboard-response","158","3446688","0.0-11.0-1.73","114","2022-3-30","13:41:2","0","19","[""Black or African-American""]","No","Male","3898167","","","","","","","","23","30","113","10","40","",""
"755","6","rating","canvas-keyboard-response","159","3447454","0.0-11.0-0.74","114","2022-3-30","13:41:2","0","19","[""Black or African-American""]","No","Male","3898167","","","","","","","","98","140","85","10","25","0",""
"null","null","clear_screen","canvas-keyboard-response","160","3447712","0.0-11.0-1.74","114","2022-3-30","13:41:2","0","19","[""Black or African-American""]","No","Male","3898167","","","","","","","","98","140","85","10","25","",""
"602","5","rating","canvas-keyboard-response","161","3448326","0.0-11.0-0.75","114","2022-3-30","13:41:2","0","19","[""Black or African-American""]","No","Male","3898167","","","","","","","","140","57","85","17","33","1",""
"null","null","clear_screen","canvas-keyboard-response","162","3448584","0.0-11.0-1.75","114","2022-3-30","13:41:2","0","19","[""Black or African-American""]","No","Male","3898167","","","","","","","","140","57","85","17","33","",""
"369","8","rating","canvas-keyboard-response","163","3448966","0.0-11.0-0.76","114","2022-3-30","13:41:2","0","19","[""Black or African-American""]","No","Male","3898167","","","","","","","","194","140","113","17","40","0",""
"null","null","clear_screen","canvas-keyboard-response","164","3449224","0.0-11.0-1.76","114","2022-3-30","13:41:2","0","19","[""Black or African-American""]","No","Male","3898167","","","","","","","","194","140","113","17","40","",""
"793","5","rating","canvas-keyboard-response","165","3450029","0.0-11.0-0.77","114","2022-3-30","13:41:2","0","19","[""Black or African-American""]","No","Male","3898167","","","","","","","","28","57","30","10","17","1",""
"null","null","clear_screen","canvas-keyboard-response","166","3450288","0.0-11.0-1.77","114","2022-3-30","13:41:2","0","19","[""Black or African-American""]","No","Male","3898167","","","","","","","","28","57","30","10","17","",""
"1995","7","rating","canvas-keyboard-response","167","3452293","0.0-11.0-0.78","114","2022-3-30","13:41:2","0","19","[""Black or African-American""]","No","Male","3898167","","","","","","","","197","30","85","25","25","1",""
"null","null","clear_screen","canvas-keyboard-response","168","3452551","0.0-11.0-1.78","114","2022-3-30","13:41:2","0","19","[""Black or African-American""]","No","Male","3898167","","","","","","","","197","30","85","25","25","",""
"1579","8","rating","canvas-keyboard-response","169","3454141","0.0-11.0-0.79","114","2022-3-30","13:41:2","0","19","[""Black or African-American""]","No","Male","3898167","","","","","","","","298","85","113","40","40","0",""
"null","null","clear_screen","canvas-keyboard-response","170","3454400","0.0-11.0-1.79","114","2022-3-30","13:41:2","0","19","[""Black or African-American""]","No","Male","3898167","","","","","","","","298","85","113","40","40","",""
"850","5","rating","canvas-keyboard-response","171","3455261","0.0-11.0-0.80","114","2022-3-30","13:41:2","0","19","[""Black or African-American""]","No","Male","3898167","","","","","","","","212","57","140","25","25","1",""
"null","null","clear_screen","canvas-keyboard-response","172","3455520","0.0-11.0-1.80","114","2022-3-30","13:41:2","0","19","[""Black or African-American""]","No","Male","3898167","","","","","","","","212","57","140","25","25","",""
"1140","4","rating","canvas-keyboard-response","173","3456669","0.0-11.0-0.81","114","2022-3-30","13:41:2","0","19","[""Black or African-American""]","No","Male","3898167","","","","","","","","188","140","85","17","33","0",""
"null","null","clear_screen","canvas-keyboard-response","174","3456928","0.0-11.0-1.81","114","2022-3-30","13:41:2","0","19","[""Black or African-American""]","No","Male","3898167","","","","","","","","188","140","85","17","33","",""
"1523","8","rating","canvas-keyboard-response","175","3458461","0.0-11.0-0.82","114","2022-3-30","13:41:2","0","19","[""Black or African-American""]","No","Male","3898167","","","","","","","","255","140","140","25","40","1",""
"null","null","clear_screen","canvas-keyboard-response","176","3458720","0.0-11.0-1.82","114","2022-3-30","13:41:2","0","19","[""Black or African-American""]","No","Male","3898167","","","","","","","","255","140","140","25","40","",""
"1459","8","rating","canvas-keyboard-response","177","3460189","0.0-11.0-0.83","114","2022-3-30","13:41:2","0","19","[""Black or African-American""]","No","Male","3898167","","","","","","","","95","140","140","10","17","1",""
"null","null","clear_screen","canvas-keyboard-response","178","3460448","0.0-11.0-1.83","114","2022-3-30","13:41:2","0","19","[""Black or African-American""]","No","Male","3898167","","","","","","","","95","140","140","10","17","",""
"1242","6","rating","canvas-keyboard-response","179","3461701","0.0-11.0-0.84","114","2022-3-30","13:41:2","0","19","[""Black or African-American""]","No","Male","3898167","","","","","","","","235","113","140","25","25","1",""
"null","null","clear_screen","canvas-keyboard-response","180","3461959","0.0-11.0-1.84","114","2022-3-30","13:41:2","0","19","[""Black or African-American""]","No","Male","3898167","","","","","","","","235","113","140","25","25","",""
"2867","7","rating","canvas-keyboard-response","181","3464837","0.0-11.0-0.85","114","2022-3-30","13:41:2","0","19","[""Black or African-American""]","No","Male","3898167","","","","","","","","18","30","113","10","33","1",""
"null","null","clear_screen","canvas-keyboard-response","182","3465094","0.0-11.0-1.85","114","2022-3-30","13:41:2","0","19","[""Black or African-American""]","No","Male","3898167","","","","","","","","18","30","113","10","33","",""
"804","5","rating","canvas-keyboard-response","183","3465908","0.0-11.0-0.86","114","2022-3-30","13:41:2","0","19","[""Black or African-American""]","No","Male","3898167","","","","","","","","57","85","85","10","25","0",""
"null","null","clear_screen","canvas-keyboard-response","184","3466167","0.0-11.0-1.86","114","2022-3-30","13:41:2","0","19","[""Black or African-American""]","No","Male","3898167","","","","","","","","57","85","85","10","25","",""
"2651","7","rating","canvas-keyboard-response","185","3468829","0.0-11.0-0.87","114","2022-3-30","13:41:2","0","19","[""Black or African-American""]","No","Male","3898167","","","","","","","","297","57","140","40","40","1",""
"null","null","clear_screen","canvas-keyboard-response","186","3469087","0.0-11.0-1.87","114","2022-3-30","13:41:2","0","19","[""Black or African-American""]","No","Male","3898167","","","","","","","","297","57","140","40","40","",""
"2156","5","rating","canvas-keyboard-response","187","3471253","0.0-11.0-0.88","114","2022-3-30","13:41:2","0","19","[""Black or African-American""]","No","Male","3898167","","","","","","","","210","57","85","25","25","0",""
"null","null","clear_screen","canvas-keyboard-response","188","3471512","0.0-11.0-1.88","114","2022-3-30","13:41:2","0","19","[""Black or African-American""]","No","Male","3898167","","","","","","","","210","57","85","25","25","",""
"2140","4","rating","canvas-keyboard-response","189","3473661","0.0-11.0-0.89","114","2022-3-30","13:41:2","0","19","[""Black or African-American""]","No","Male","3898167","","","","","","","","85","113","140","10","33","0",""
"null","null","clear_screen","canvas-keyboard-response","190","3473919","0.0-11.0-1.89","114","2022-3-30","13:41:2","0","19","[""Black or African-American""]","No","Male","3898167","","","","","","","","85","113","140","10","33","",""
"2204","5","rating","canvas-keyboard-response","191","3476133","0.0-11.0-0.90","114","2022-3-30","13:41:2","0","19","[""Black or African-American""]","No","Male","3898167","","","","","","","","117","30","85","17","25","1",""
"null","null","clear_screen","canvas-keyboard-response","192","3476391","0.0-11.0-1.90","114","2022-3-30","13:41:2","0","19","[""Black or African-American""]","No","Male","3898167","","","","","","","","117","30","85","17","25","",""
"1952","5","rating","canvas-keyboard-response","193","3478357","0.0-11.0-0.91","114","2022-3-30","13:41:2","0","19","[""Black or African-American""]","No","Male","3898167","","","","","","","","141","57","113","17","33","0",""
"null","null","clear_screen","canvas-keyboard-response","194","3478618","0.0-11.0-1.91","114","2022-3-30","13:41:2","0","19","[""Black or African-American""]","No","Male","3898167","","","","","","","","141","57","113","17","33","",""
"4542","7","rating","canvas-keyboard-response","195","3483173","0.0-11.0-0.92","114","2022-3-30","13:41:2","0","19","[""Black or African-American""]","No","Male","3898167","","","","","","","","22","30","85","10","40","1",""
"null","null","clear_screen","canvas-keyboard-response","196","3483433","0.0-11.0-1.92","114","2022-3-30","13:41:2","0","19","[""Black or African-American""]","No","Male","3898167","","","","","","","","22","30","85","10","40","",""
"2122","7","rating","canvas-keyboard-response","197","3485565","0.0-11.0-0.93","114","2022-3-30","13:41:2","0","19","[""Black or African-American""]","No","Male","3898167","","","","","","","","145","57","85","17","40","0",""
"null","null","clear_screen","canvas-keyboard-response","198","3485823","0.0-11.0-1.93","114","2022-3-30","13:41:2","0","19","[""Black or African-American""]","No","Male","3898167","","","","","","","","145","57","85","17","40","",""
"5163","7","rating","canvas-keyboard-response","199","3490997","0.0-11.0-0.94","114","2022-3-30","13:41:2","0","19","[""Black or African-American""]","No","Male","3898167","","","","","","","","270","57","85","33","40","1",""
"null","null","clear_screen","canvas-keyboard-response","200","3491256","0.0-11.0-1.94","114","2022-3-30","13:41:2","0","19","[""Black or African-American""]","No","Male","3898167","","","","","","","","270","57","85","33","40","",""
"1674","6","rating","canvas-keyboard-response","201","3492941","0.0-11.0-0.95","114","2022-3-30","13:41:2","0","19","[""Black or African-American""]","No","Male","3898167","","","","","","","","157","85","85","17","33","0",""
"null","null","clear_screen","canvas-keyboard-response","202","3493200","0.0-11.0-1.95","114","2022-3-30","13:41:2","0","19","[""Black or African-American""]","No","Male","3898167","","","","","","","","157","85","85","17","33","",""
"6073","7","rating","canvas-keyboard-response","203","3499285","0.0-11.0-0.96","114","2022-3-30","13:41:2","0","19","[""Black or African-American""]","No","Male","3898167","","","","","","","","72","113","57","10","17","1",""
"null","null","clear_screen","canvas-keyboard-response","204","3499544","0.0-11.0-1.96","114","2022-3-30","13:41:2","0","19","[""Black or African-American""]","No","Male","3898167","","","","","","","","72","113","57","10","17","",""
"1970","5","rating","canvas-keyboard-response","205","3501525","0.0-11.0-0.97","114","2022-3-30","13:41:2","0","19","[""Black or African-American""]","No","Male","3898167","","","","","","","","192","140","57","17","40","0",""
"null","null","clear_screen","canvas-keyboard-response","206","3501783","0.0-11.0-1.97","114","2022-3-30","13:41:2","0","19","[""Black or African-American""]","No","Male","3898167","","","","","","","","192","140","57","17","40","",""
"1388","6","rating","canvas-keyboard-response","207","3503181","0.0-11.0-0.98","114","2022-3-30","13:41:2","0","19","[""Black or African-American""]","No","Male","3898167","","","","","","","","182","140","57","17","25","1",""
"null","null","clear_screen","canvas-keyboard-response","208","3503440","0.0-11.0-1.98","114","2022-3-30","13:41:2","0","19","[""Black or African-American""]","No","Male","3898167","","","","","","","","182","140","57","17","25","",""
"810","5","rating","canvas-keyboard-response","209","3504261","0.0-11.0-0.99","114","2022-3-30","13:41:2","0","19","[""Black or African-American""]","No","Male","3898167","","","","","","","","41","57","113","10","33","1",""
"null","null","clear_screen","canvas-keyboard-response","210","3504518","0.0-11.0-1.99","114","2022-3-30","13:41:2","0","19","[""Black or African-American""]","No","Male","3898167","","","","","","","","41","57","113","10","33","",""
"1316","4","rating","canvas-keyboard-response","211","3505845","0.0-11.0-0.100","114","2022-3-30","13:41:2","0","19","[""Black or African-American""]","No","Male","3898167","","","","","","","","281","113","30","33","40","1",""
"null","null","clear_screen","canvas-keyboard-response","212","3506103","0.0-11.0-1.100","114","2022-3-30","13:41:2","0","19","[""Black or African-American""]","No","Male","3898167","","","","","","","","281","113","30","33","40","",""
"1194","4","rating","canvas-keyboard-response","213","3507309","0.0-11.0-0.101","114","2022-3-30","13:41:2","0","19","[""Black or African-American""]","No","Male","3898167","","","","","","","","191","140","30","17","40","0",""
"null","null","clear_screen","canvas-keyboard-response","214","3507568","0.0-11.0-1.101","114","2022-3-30","13:41:2","0","19","[""Black or African-American""]","No","Male","3898167","","","","","","","","191","140","30","17","40","",""
"1831","3","rating","canvas-keyboard-response","215","3509413","0.0-11.0-0.102","114","2022-3-30","13:41:2","0","19","[""Black or African-American""]","No","Male","3898167","","","","","","","","100","140","140","10","25","0",""
"null","null","clear_screen","canvas-keyboard-response","216","3509673","0.0-11.0-1.102","114","2022-3-30","13:41:2","0","19","[""Black or African-American""]","No","Male","3898167","","","","","","","","100","140","140","10","25","",""
"2656","4","rating","canvas-keyboard-response","217","3512341","0.0-11.0-0.103","114","2022-3-30","13:41:2","0","19","[""Black or African-American""]","No","Male","3898167","","","","","","","","195","140","140","17","40","1",""
"null","null","clear_screen","canvas-keyboard-response","218","3512600","0.0-11.0-1.103","114","2022-3-30","13:41:2","0","19","[""Black or African-American""]","No","Male","3898167","","","","","","","","195","140","140","17","40","",""
"2314","4","rating","canvas-keyboard-response","219","3514925","0.0-11.0-0.104","114","2022-3-30","13:41:2","0","19","[""Black or African-American""]","No","Male","3898167","","","","","","","","114","30","140","17","17","1",""
"null","null","clear_screen","canvas-keyboard-response","220","3515184","0.0-11.0-1.104","114","2022-3-30","13:41:2","0","19","[""Black or African-American""]","No","Male","3898167","","","","","","","","114","30","140","17","17","",""
"2339","2","rating","canvas-keyboard-response","221","3517533","0.0-11.0-0.105","114","2022-3-30","13:41:2","0","19","[""Black or African-American""]","No","Male","3898167","","","","","","","","108","140","85","10","40","0",""
"null","null","clear_screen","canvas-keyboard-response","222","3517791","0.0-11.0-1.105","114","2022-3-30","13:41:2","0","19","[""Black or African-American""]","No","Male","3898167","","","","","","","","108","140","85","10","40","",""
"1331","3","rating","canvas-keyboard-response","223","3519133","0.0-11.0-0.106","114","2022-3-30","13:41:2","0","19","[""Black or African-American""]","No","Male","3898167","","","","","","","","135","57","85","17","25","1",""
"null","null","clear_screen","canvas-keyboard-response","224","3519391","0.0-11.0-1.106","114","2022-3-30","13:41:2","0","19","[""Black or African-American""]","No","Male","3898167","","","","","","","","135","57","85","17","25","",""
"1962","5","rating","canvas-keyboard-response","225","3521364","0.0-11.0-0.107","114","2022-3-30","13:41:2","0","19","[""Black or African-American""]","No","Male","3898167","","","","","","","","233","85","113","25","40","0",""
"null","null","clear_screen","canvas-keyboard-response","226","3521623","0.0-11.0-1.107","114","2022-3-30","13:41:2","0","19","[""Black or African-American""]","No","Male","3898167","","","","","","","","233","85","113","25","40","",""
"883","6","rating","canvas-keyboard-response","227","3522516","0.0-11.0-0.108","114","2022-3-30","13:41:2","0","19","[""Black or African-American""]","No","Male","3898167","","","","","","","","159","85","140","17","33","1",""
"null","null","clear_screen","canvas-keyboard-response","228","3522775","0.0-11.0-1.108","114","2022-3-30","13:41:2","0","19","[""Black or African-American""]","No","Male","3898167","","","","","","","","159","85","140","17","33","",""
"1129","4","rating","canvas-keyboard-response","229","3523916","0.0-11.0-0.109","114","2022-3-30","13:41:2","0","19","[""Black or African-American""]","No","Male","3898167","","","","","","","","231","85","57","25","40","1",""
"null","null","clear_screen","canvas-keyboard-response","230","3524176","0.0-11.0-1.109","114","2022-3-30","13:41:2","0","19","[""Black or African-American""]","No","Male","3898167","","","","","","","","231","85","57","25","40","",""
"2515","5","rating","canvas-keyboard-response","231","3526700","0.0-11.0-0.110","114","2022-3-30","13:41:2","0","19","[""Black or African-American""]","No","Male","3898167","","","","","","","","151","85","57","17","25","1",""
"null","null","clear_screen","canvas-keyboard-response","232","3526959","0.0-11.0-1.110","114","2022-3-30","13:41:2","0","19","[""Black or African-American""]","No","Male","3898167","","","","","","","","151","85","57","17","25","",""
"2787","6","rating","canvas-keyboard-response","233","3529756","0.0-11.0-0.111","114","2022-3-30","13:41:2","0","19","[""Black or African-American""]","No","Male","3898167","","","","","","","","271","57","113","33","40","0",""
"null","null","clear_screen","canvas-keyboard-response","234","3530014","0.0-11.0-1.111","114","2022-3-30","13:41:2","0","19","[""Black or African-American""]","No","Male","3898167","","","","","","","","271","57","113","33","40","",""
"1235","5","rating","canvas-keyboard-response","235","3531261","0.0-11.0-0.112","114","2022-3-30","13:41:2","0","19","[""Black or African-American""]","No","Male","3898167","","","","","","","","69","85","140","10","40","0",""
"null","null","clear_screen","canvas-keyboard-response","236","3531519","0.0-11.0-1.112","114","2022-3-30","13:41:2","0","19","[""Black or African-American""]","No","Male","3898167","","","","","","","","69","85","140","10","40","",""
"980","4","rating","canvas-keyboard-response","237","3532509","0.0-11.0-0.113","114","2022-3-30","13:41:2","0","19","[""Black or African-American""]","No","Male","3898167","","","","","","","","282","113","57","33","40","0",""
"null","null","clear_screen","canvas-keyboard-response","238","3532766","0.0-11.0-1.113","114","2022-3-30","13:41:2","0","19","[""Black or African-American""]","No","Male","3898167","","","","","","","","282","113","57","33","40","",""
"1532","7","rating","canvas-keyboard-response","239","3534308","0.0-11.0-0.114","114","2022-3-30","13:41:2","0","19","[""Black or African-American""]","No","Male","3898167","","","","","","","","278","85","113","33","40","1",""
"null","null","clear_screen","canvas-keyboard-response","240","3534566","0.0-11.0-1.114","114","2022-3-30","13:41:2","0","19","[""Black or African-American""]","No","Male","3898167","","","","","","","","278","85","113","33","40","",""
"941","5","rating","canvas-keyboard-response","241","3535516","0.0-11.0-0.115","114","2022-3-30","13:41:2","0","19","[""Black or African-American""]","No","Male","3898167","","","","","","","","123","30","113","17","33","0",""
"null","null","clear_screen","canvas-keyboard-response","242","3535775","0.0-11.0-1.115","114","2022-3-30","13:41:2","0","19","[""Black or African-American""]","No","Male","3898167","","","","","","","","123","30","113","17","33","",""
"1491","4","rating","canvas-keyboard-response","243","3537276","0.0-11.0-0.116","114","2022-3-30","13:41:2","0","19","[""Black or African-American""]","No","Male","3898167","","","","","","","","86","113","30","10","40","0",""
"null","null","clear_screen","canvas-keyboard-response","244","3537534","0.0-11.0-1.116","114","2022-3-30","13:41:2","0","19","[""Black or African-American""]","No","Male","3898167","","","","","","","","86","113","30","10","40","",""
"867","3","rating","canvas-keyboard-response","245","3538414","0.0-11.0-0.117","114","2022-3-30","13:41:2","0","19","[""Black or African-American""]","No","Male","3898167","","","","","","","","88","113","85","10","40","1",""
"null","null","clear_screen","canvas-keyboard-response","246","3538674","0.0-11.0-1.117","114","2022-3-30","13:41:2","0","19","[""Black or African-American""]","No","Male","3898167","","","","","","","","88","113","85","10","40","",""
"1779","8","rating","canvas-keyboard-response","247","3540469","0.0-11.0-0.118","114","2022-3-30","13:41:2","0","19","[""Black or African-American""]","No","Male","3898167","","","","","","","","185","140","140","17","25","1",""
"null","null","clear_screen","canvas-keyboard-response","248","3540729","0.0-11.0-1.118","114","2022-3-30","13:41:2","0","19","[""Black or African-American""]","No","Male","3898167","","","","","","","","185","140","140","17","25","",""
"3785","2","rating","canvas-keyboard-response","249","3544525","0.0-11.0-0.119","114","2022-3-30","13:41:2","0","19","[""Black or African-American""]","No","Male","3898167","","","","","","","","77","113","57","10","25","1",""
"null","null","clear_screen","canvas-keyboard-response","250","3544783","0.0-11.0-1.119","114","2022-3-30","13:41:2","0","19","[""Black or African-American""]","No","Male","3898167","","","","","","","","77","113","57","10","25","",""
"1188","4","rating","canvas-keyboard-response","251","3545980","0.0-11.0-0.120","114","2022-3-30","13:41:2","0","19","[""Black or African-American""]","No","Male","3898167","","","","","","","","138","57","30","17","33","1",""
"null","null","clear_screen","canvas-keyboard-response","252","3546239","0.0-11.0-1.120","114","2022-3-30","13:41:2","0","19","[""Black or African-American""]","No","Male","3898167","","","","","","","","138","57","30","17","33","",""
"595","4","rating","canvas-keyboard-response","253","3546845","0.0-11.0-0.121","114","2022-3-30","13:41:2","0","19","[""Black or African-American""]","No","Male","3898167","","","","","","","","127","30","85","17","40","0",""
"null","null","clear_screen","canvas-keyboard-response","254","3547103","0.0-11.0-1.121","114","2022-3-30","13:41:2","0","19","[""Black or African-American""]","No","Male","3898167","","","","","","","","127","30","85","17","40","",""
"211","6","rating","canvas-keyboard-response","255","3547325","0.0-11.0-0.122","114","2022-3-30","13:41:2","0","19","[""Black or African-American""]","No","Male","3898167","","","","","","","","181","140","30","17","25","0",""
"null","null","clear_screen","canvas-keyboard-response","256","3547584","0.0-11.0-1.122","114","2022-3-30","13:41:2","0","19","[""Black or African-American""]","No","Male","3898167","","","","","","","","181","140","30","17","25","",""
"288","5","rating","canvas-keyboard-response","257","3547885","0.0-11.0-0.123","114","2022-3-30","13:41:2","0","19","[""Black or African-American""]","No","Male","3898167","","","","","","","","254","140","113","25","40","0",""
"null","null","clear_screen","canvas-keyboard-response","258","3548143","0.0-11.0-1.123","114","2022-3-30","13:41:2","0","19","[""Black or African-American""]","No","Male","3898167","","","","","","","","254","140","113","25","40","",""
"227","3","rating","canvas-keyboard-response","259","3548380","0.0-11.0-0.124","114","2022-3-30","13:41:2","0","19","[""Black or African-American""]","No","Male","3898167","","","","","","","","46","57","113","10","40","1",""
"null","null","clear_screen","canvas-keyboard-response","260","3548638","0.0-11.0-1.124","114","2022-3-30","13:41:2","0","19","[""Black or African-American""]","No","Male","3898167","","","","","","","","46","57","113","10","40","",""
"2019","7","rating","canvas-keyboard-response","261","3550669","0.0-11.0-0.125","114","2022-3-30","13:41:2","0","19","[""Black or African-American""]","No","Male","3898167","","","","","","","","70","113","140","10","10","0",""
"null","null","clear_screen","canvas-keyboard-response","262","3550928","0.0-11.0-1.125","114","2022-3-30","13:41:2","0","19","[""Black or African-American""]","No","Male","3898167","","","","","","","","70","113","140","10","10","",""
"850","5","rating","canvas-keyboard-response","263","3551788","0.0-11.0-0.126","114","2022-3-30","13:41:2","0","19","[""Black or African-American""]","No","Male","3898167","","","","","","","","285","113","140","33","40","0",""
"null","null","clear_screen","canvas-keyboard-response","264","3552047","0.0-11.0-1.126","114","2022-3-30","13:41:2","0","19","[""Black or African-American""]","No","Male","3898167","","","","","","","","285","113","140","33","40","",""
"1293","5","rating","canvas-keyboard-response","265","3553349","0.0-11.0-0.127","114","2022-3-30","13:41:2","0","19","[""Black or African-American""]","No","Male","3898167","","","","","","","","126","30","57","17","40","0",""
"null","null","clear_screen","canvas-keyboard-response","266","3553608","0.0-11.0-1.127","114","2022-3-30","13:41:2","0","19","[""Black or African-American""]","No","Male","3898167","","","","","","","","126","30","57","17","40","",""
"331","1","rating","canvas-keyboard-response","267","3553948","0.0-11.0-0.128","114","2022-3-30","13:41:2","0","19","[""Black or African-American""]","No","Male","3898167","","","","","","","","122","30","85","17","33","1",""
"null","null","clear_screen","canvas-keyboard-response","268","3554206","0.0-11.0-1.128","114","2022-3-30","13:41:2","0","19","[""Black or African-American""]","No","Male","3898167","","","","","","","","122","30","85","17","33","",""
"372","3","rating","canvas-keyboard-response","269","3554588","0.0-11.0-0.129","114","2022-3-30","13:41:2","0","19","[""Black or African-American""]","No","Male","3898167","","","","","","","","93","140","85","10","17","1",""
"null","null","clear_screen","canvas-keyboard-response","270","3554846","0.0-11.0-1.129","114","2022-3-30","13:41:2","0","19","[""Black or African-American""]","No","Male","3898167","","","","","","","","93","140","85","10","17","",""
"322","2","rating","canvas-keyboard-response","271","3555180","0.0-11.0-0.130","114","2022-3-30","13:41:2","0","19","[""Black or African-American""]","No","Male","3898167","","","","","","","","242","113","57","25","40","1",""
"null","null","clear_screen","canvas-keyboard-response","272","3555438","0.0-11.0-1.130","114","2022-3-30","13:41:2","0","19","[""Black or African-American""]","No","Male","3898167","","","","","","","","242","113","57","25","40","",""
"404","4","rating","canvas-keyboard-response","273","3555852","0.0-11.0-0.131","114","2022-3-30","13:41:2","0","19","[""Black or African-American""]","No","Male","3898167","","","","","","","","155","85","30","17","33","1",""
"null","null","clear_screen","canvas-keyboard-response","274","3556111","0.0-11.0-1.131","114","2022-3-30","13:41:2","0","19","[""Black or African-American""]","No","Male","3898167","","","","","","","","155","85","30","17","33","",""
"84","6","rating","canvas-keyboard-response","275","3556204","0.0-11.0-0.132","114","2022-3-30","13:41:2","0","19","[""Black or African-American""]","No","Male","3898167","","","","","","","","253","140","85","25","40","1",""
"null","null","clear_screen","canvas-keyboard-response","276","3556461","0.0-11.0-1.132","114","2022-3-30","13:41:2","0","19","[""Black or African-American""]","No","Male","3898167","","","","","","","","253","140","85","25","40","",""
"27","5","rating","canvas-keyboard-response","277","3556500","0.0-11.0-0.133","114","2022-3-30","13:41:2","0","19","[""Black or African-American""]","No","Male","3898167","","","","","","","","71","113","30","10","17","0",""
"null","null","clear_screen","canvas-keyboard-response","278","3556760","0.0-11.0-1.133","114","2022-3-30","13:41:2","0","19","[""Black or African-American""]","No","Male","3898167","","","","","","","","71","113","30","10","17","",""
"450","7","rating","canvas-keyboard-response","279","3557220","0.0-11.0-0.134","114","2022-3-30","13:41:2","0","19","[""Black or African-American""]","No","Male","3898167","","","","","","","","213","57","30","25","33","1",""
"null","null","clear_screen","canvas-keyboard-response","280","3557479","0.0-11.0-1.134","114","2022-3-30","13:41:2","0","19","[""Black or African-American""]","No","Male","3898167","","","","","","","","213","57","30","25","33","",""
"292","5","rating","canvas-keyboard-response","281","3557780","0.0-11.0-0.135","114","2022-3-30","13:41:2","0","19","[""Black or African-American""]","No","Male","3898167","","","","","","","","13","30","113","10","25","1",""
"null","null","clear_screen","canvas-keyboard-response","282","3558038","0.0-11.0-1.135","114","2022-3-30","13:41:2","0","19","[""Black or African-American""]","No","Male","3898167","","","","","","","","13","30","113","10","25","",""
"268","6","rating","canvas-keyboard-response","283","3558316","0.0-11.0-0.136","114","2022-3-30","13:41:2","0","19","[""Black or African-American""]","No","Male","3898167","","","","","","","","160","85","30","17","40","1",""
"null","null","clear_screen","canvas-keyboard-response","284","3558574","0.0-11.0-1.136","114","2022-3-30","13:41:2","0","19","[""Black or African-American""]","No","Male","3898167","","","","","","","","160","85","30","17","40","",""
"403","4","rating","canvas-keyboard-response","285","3558989","0.0-11.0-0.137","114","2022-3-30","13:41:2","0","19","[""Black or African-American""]","No","Male","3898167","","","","","","","","55","85","30","10","25","0",""
"null","null","clear_screen","canvas-keyboard-response","286","3559247","0.0-11.0-1.137","114","2022-3-30","13:41:2","0","19","[""Black or African-American""]","No","Male","3898167","","","","","","","","55","85","30","10","25","",""
"1108","6","rating","canvas-keyboard-response","287","3560364","0.0-11.0-0.138","114","2022-3-30","13:41:2","0","19","[""Black or African-American""]","No","Male","3898167","","","","","","","","43","57","30","10","40","0",""
"null","null","clear_screen","canvas-keyboard-response","288","3560621","0.0-11.0-1.138","114","2022-3-30","13:41:2","0","19","[""Black or African-American""]","No","Male","3898167","","","","","","","","43","57","30","10","40","",""
"189","2","rating","canvas-keyboard-response","289","3560820","0.0-11.0-0.139","114","2022-3-30","13:41:2","0","19","[""Black or African-American""]","No","Male","3898167","","","","","","","","161","85","57","17","40","1",""
"null","null","clear_screen","canvas-keyboard-response","290","3561078","0.0-11.0-1.139","114","2022-3-30","13:41:2","0","19","[""Black or African-American""]","No","Male","3898167","","","","","","","","161","85","57","17","40","",""
"1227","2","rating","canvas-keyboard-response","291","3562317","0.0-11.0-0.140","114","2022-3-30","13:41:2","0","19","[""Black or African-American""]","No","Male","3898167","","","","","","","","45","57","85","10","40","0",""
"null","null","clear_screen","canvas-keyboard-response","292","3562579","0.0-11.0-1.140","114","2022-3-30","13:41:2","0","19","[""Black or African-American""]","No","Male","3898167","","","","","","","","45","57","85","10","40","",""
"835","4","rating","canvas-keyboard-response","293","3563429","0.0-11.0-0.141","114","2022-3-30","13:41:2","0","19","[""Black or African-American""]","No","Male","3898167","","","","","","","","73","113","85","10","17","1",""
"null","null","clear_screen","canvas-keyboard-response","294","3563689","0.0-11.0-1.141","114","2022-3-30","13:41:2","0","19","[""Black or African-American""]","No","Male","3898167","","","","","","","","73","113","85","10","17","",""
"1672","8","rating","canvas-keyboard-response","295","3565372","0.0-11.0-0.142","114","2022-3-30","13:41:2","0","19","[""Black or African-American""]","No","Male","3898167","","","","","","","","223","85","113","25","25","0",""
"null","null","clear_screen","canvas-keyboard-response","296","3565631","0.0-11.0-1.142","114","2022-3-30","13:41:2","0","19","[""Black or African-American""]","No","Male","3898167","","","","","","","","223","85","113","25","25","",""
"1547","9","rating","canvas-keyboard-response","297","3567189","0.0-11.0-0.143","114","2022-3-30","13:41:2","0","19","[""Black or African-American""]","No","Male","3898167","","","","","","","","200","30","30","25","33","1",""
"null","null","clear_screen","canvas-keyboard-response","298","3567448","0.0-11.0-1.143","114","2022-3-30","13:41:2","0","19","[""Black or African-American""]","No","Male","3898167","","","","","","","","200","30","30","25","33","",""
"362","5","rating","canvas-keyboard-response","299","3567820","0.0-11.0-0.144","114","2022-3-30","13:41:2","0","19","[""Black or African-American""]","No","Male","3898167","","","","","","","","34","57","57","10","25","1",""
"null","null","clear_screen","canvas-keyboard-response","300","3568079","0.0-11.0-1.144","114","2022-3-30","13:41:2","0","19","[""Black or African-American""]","No","Male","3898167","","","","","","","","34","57","57","10","25","",""
"339","8","rating","canvas-keyboard-response","301","3568428","0.0-11.0-0.145","114","2022-3-30","13:41:2","0","19","[""Black or African-American""]","No","Male","3898167","","","","","","","","30","57","85","10","17","0",""
"null","null","clear_screen","canvas-keyboard-response","302","3568688","0.0-11.0-1.145","114","2022-3-30","13:41:2","0","19","[""Black or African-American""]","No","Male","3898167","","","","","","","","30","57","85","10","17","",""
"530","5","rating","canvas-keyboard-response","303","3569228","0.0-11.0-0.146","114","2022-3-30","13:41:2","0","19","[""Black or African-American""]","No","Male","3898167","","","","","","","","111","30","57","17","17","1",""
"null","null","clear_screen","canvas-keyboard-response","304","3569486","0.0-11.0-1.146","114","2022-3-30","13:41:2","0","19","[""Black or African-American""]","No","Male","3898167","","","","","","","","111","30","57","17","17","",""
"2835","5","rating","canvas-keyboard-response","305","3572332","0.0-11.0-0.147","114","2022-3-30","13:41:2","0","19","[""Black or African-American""]","No","Male","3898167","","","","","","","","264","30","140","33","40","0",""
"null","null","clear_screen","canvas-keyboard-response","306","3572591","0.0-11.0-1.147","114","2022-3-30","13:41:2","0","19","[""Black or African-American""]","No","Male","3898167","","","","","","","","264","30","140","33","40","",""
"1818","4","rating","canvas-keyboard-response","307","3574420","0.0-11.0-0.148","114","2022-3-30","13:41:2","0","19","[""Black or African-American""]","No","Male","3898167","","","","","","","","216","57","113","25","33","0",""
"null","null","clear_screen","canvas-keyboard-response","308","3574678","0.0-11.0-1.148","114","2022-3-30","13:41:2","0","19","[""Black or African-American""]","No","Male","3898167","","","","","","","","216","57","113","25","33","",""
"1747","6","rating","canvas-keyboard-response","309","3576436","0.0-11.0-0.149","114","2022-3-30","13:41:2","0","19","[""Black or African-American""]","No","Male","3898167","","","","","","","","265","57","85","33","33","0",""
"null","null","clear_screen","canvas-keyboard-response","310","3576695","0.0-11.0-1.149","114","2022-3-30","13:41:2","0","19","[""Black or African-American""]","No","Male","3898167","","","","","","","","265","57","85","33","33","",""
"1714","6","rating","canvas-keyboard-response","311","3578421","0.0-11.0-0.150","114","2022-3-30","13:41:2","0","19","[""Black or African-American""]","No","Male","3898167","","","","","","","","201","30","57","25","33","1",""
"null","null","clear_screen","canvas-keyboard-response","312","3578680","0.0-11.0-1.150","114","2022-3-30","13:41:2","0","19","[""Black or African-American""]","No","Male","3898167","","","","","","","","201","30","57","25","33","",""
"946","5","rating","canvas-keyboard-response","313","3579636","0.0-11.0-0.151","114","2022-3-30","13:41:2","0","19","[""Black or African-American""]","No","Male","3898167","","","","","","","","237","113","57","25","33","1",""
"null","null","clear_screen","canvas-keyboard-response","314","3579895","0.0-11.0-1.151","114","2022-3-30","13:41:2","0","19","[""Black or African-American""]","No","Male","3898167","","","","","","","","237","113","57","25","33","",""
"2483","2","rating","canvas-keyboard-response","315","3582389","0.0-11.0-0.152","114","2022-3-30","13:41:2","0","19","[""Black or African-American""]","No","Male","3898167","","","","","","","","96","140","30","10","25","0",""
"null","null","clear_screen","canvas-keyboard-response","316","3582647","0.0-11.0-1.152","114","2022-3-30","13:41:2","0","19","[""Black or African-American""]","No","Male","3898167","","","","","","","","96","140","30","10","25","",""
"1811","3","rating","canvas-keyboard-response","317","3584468","0.0-11.0-0.153","114","2022-3-30","13:41:2","0","19","[""Black or African-American""]","No","Male","3898167","","","","","","","","44","57","57","10","40","0",""
"null","null","clear_screen","canvas-keyboard-response","318","3584726","0.0-11.0-1.153","114","2022-3-30","13:41:2","0","19","[""Black or African-American""]","No","Male","3898167","","","","","","","","44","57","57","10","40","",""
"2157","9","rating","canvas-keyboard-response","319","3586892","0.0-11.0-0.154","114","2022-3-30","13:41:2","0","19","[""Black or African-American""]","No","Male","3898167","","","","","","","","214","57","57","25","33","1",""
"null","null","clear_screen","canvas-keyboard-response","320","3587151","0.0-11.0-1.154","114","2022-3-30","13:41:2","0","19","[""Black or African-American""]","No","Male","3898167","","","","","","","","214","57","57","25","33","",""
"2026","5","rating","canvas-keyboard-response","321","3589188","0.0-11.0-0.155","114","2022-3-30","13:41:2","0","19","[""Black or African-American""]","No","Male","3898167","","","","","","","","62","85","85","10","33","0",""
"null","null","clear_screen","canvas-keyboard-response","322","3589446","0.0-11.0-1.155","114","2022-3-30","13:41:2","0","19","[""Black or African-American""]","No","Male","3898167","","","","","","","","62","85","85","10","33","",""
"1052","6","rating","canvas-keyboard-response","323","3590509","0.0-11.0-0.156","114","2022-3-30","13:41:2","0","19","[""Black or African-American""]","No","Male","3898167","","","","","","","","10","30","30","10","25","0",""
"null","null","clear_screen","canvas-keyboard-response","324","3590766","0.0-11.0-1.156","114","2022-3-30","13:41:2","0","19","[""Black or African-American""]","No","Male","3898167","","","","","","","","10","30","30","10","25","",""
"7755","2","rating","canvas-keyboard-response","325","3598532","0.0-11.0-0.157","114","2022-3-30","13:41:2","0","19","[""Black or African-American""]","No","Male","3898167","","","","","","","","124","30","140","17","33","0",""
"null","null","clear_screen","canvas-keyboard-response","326","3598790","0.0-11.0-1.157","114","2022-3-30","13:41:2","0","19","[""Black or African-American""]","No","Male","3898167","","","","","","","","124","30","140","17","33","",""
"763","3","rating","canvas-keyboard-response","327","3599564","0.0-11.0-0.158","114","2022-3-30","13:41:2","0","19","[""Black or African-American""]","No","Male","3898167","","","","","","","","166","113","30","17","25","1",""
"null","null","clear_screen","canvas-keyboard-response","328","3599822","0.0-11.0-1.158","114","2022-3-30","13:41:2","0","19","[""Black or African-American""]","No","Male","3898167","","","","","","","","166","113","30","17","25","",""
"2747","8","rating","canvas-keyboard-response","329","3602580","0.0-11.0-0.159","114","2022-3-30","13:41:2","0","19","[""Black or African-American""]","No","Male","3898167","","","","","","","","165","113","140","17","17","0",""
"null","null","clear_screen","canvas-keyboard-response","330","3602838","0.0-11.0-1.159","114","2022-3-30","13:41:2","0","19","[""Black or African-American""]","No","Male","3898167","","","","","","","","165","113","140","17","17","",""
"1339","4","rating","canvas-keyboard-response","331","3604188","0.0-11.0-0.160","114","2022-3-30","13:41:2","0","19","[""Black or African-American""]","No","Male","3898167","","","","","","","","221","57","113","25","40","1",""
"null","null","clear_screen","canvas-keyboard-response","332","3604446","0.0-11.0-1.160","114","2022-3-30","13:41:2","0","19","[""Black or African-American""]","No","Male","3898167","","","","","","","","221","57","113","25","40","",""
"36","5","rating","canvas-keyboard-response","333","3604494","0.0-11.0-0.161","114","2022-3-30","13:41:2","0","19","[""Black or African-American""]","No","Male","3898167","","","","","","","","116","30","57","17","25","0",""
"null","null","clear_screen","canvas-keyboard-response","334","3604753","0.0-11.0-1.161","114","2022-3-30","13:41:2","0","19","[""Black or African-American""]","No","Male","3898167","","","","","","","","116","30","57","17","25","",""
"88","6","rating","canvas-keyboard-response","335","3604852","0.0-11.0-0.162","114","2022-3-30","13:41:2","0","19","[""Black or African-American""]","No","Male","3898167","","","","","","","","218","57","30","25","40","0",""
"null","null","clear_screen","canvas-keyboard-response","336","3605110","0.0-11.0-1.162","114","2022-3-30","13:41:2","0","19","[""Black or African-American""]","No","Male","3898167","","","","","","","","218","57","30","25","40","",""
"76","2","rating","canvas-keyboard-response","337","3605195","0.0-11.0-0.163","114","2022-3-30","13:41:2","0","19","[""Black or African-American""]","No","Male","3898167","","","","","","","","76","113","30","10","25","1",""
"null","null","clear_screen","canvas-keyboard-response","338","3605454","0.0-11.0-1.163","114","2022-3-30","13:41:2","0","19","[""Black or African-American""]","No","Male","3898167","","","","","","","","76","113","30","10","25","",""
"83","3","rating","canvas-keyboard-response","339","3605548","0.0-11.0-0.164","114","2022-3-30","13:41:2","0","19","[""Black or African-American""]","No","Male","3898167","","","","","","","","113","30","113","17","17","1",""
"null","null","clear_screen","canvas-keyboard-response","340","3605806","0.0-11.0-1.164","114","2022-3-30","13:41:2","0","19","[""Black or African-American""]","No","Male","3898167","","","","","","","","113","30","113","17","17","",""
"131","4","rating","canvas-keyboard-response","341","3605948","0.0-11.0-0.165","114","2022-3-30","13:41:2","0","19","[""Black or African-American""]","No","Male","3898167","","","","","","","","249","140","113","25","33","0",""
"null","null","clear_screen","canvas-keyboard-response","342","3606206","0.0-11.0-1.165","114","2022-3-30","13:41:2","0","19","[""Black or African-American""]","No","Male","3898167","","","","","","","","249","140","113","25","33","",""
"115","1","rating","canvas-keyboard-response","343","3606331","0.0-11.0-0.166","114","2022-3-30","13:41:2","0","19","[""Black or African-American""]","No","Male","3898167","","","","","","","","280","113","140","33","33","0",""
"null","null","clear_screen","canvas-keyboard-response","344","3606589","0.0-11.0-1.166","114","2022-3-30","13:41:2","0","19","[""Black or African-American""]","No","Male","3898167","","","","","","","","280","113","140","33","33","",""
"0","5","rating","canvas-keyboard-response","345","3606600","0.0-11.0-0.167","114","2022-3-30","13:41:2","0","19","[""Black or African-American""]","No","Male","3898167","","","","","","","","61","85","57","10","33","0",""
"null","null","clear_screen","canvas-keyboard-response","346","3606858","0.0-11.0-1.167","114","2022-3-30","13:41:2","0","19","[""Black or African-American""]","No","Male","3898167","","","","","","","","61","85","57","10","33","",""
"287","7","rating","canvas-keyboard-response","347","3607156","0.0-11.0-0.168","114","2022-3-30","13:41:2","0","19","[""Black or African-American""]","No","Male","3898167","","","","","","","","129","30","140","17","40","1",""
"null","null","clear_screen","canvas-keyboard-response","348","3607418","0.0-11.0-1.168","114","2022-3-30","13:41:2","0","19","[""Black or African-American""]","No","Male","3898167","","","","","","","","129","30","140","17","40","",""
"113","6","rating","canvas-keyboard-response","349","3607540","0.0-11.0-0.169","114","2022-3-30","13:41:2","0","19","[""Black or African-American""]","No","Male","3898167","","","","","","","","6","30","57","10","17","1",""
"191","5","clear_screen","canvas-keyboard-response","350","3607740","0.0-11.0-1.169","114","2022-3-30","13:41:2","0","19","[""Black or African-American""]","No","Male","3898167","","","","","","","","6","30","57","10","17","",""
"374","8","rating","canvas-keyboard-response","351","3608123","0.0-11.0-0.170","114","2022-3-30","13:41:2","0","19","[""Black or African-American""]","No","Male","3898167","","","","","","","","168","113","85","17","25","1",""
"null","null","clear_screen","canvas-keyboard-response","352","3608382","0.0-11.0-1.170","114","2022-3-30","13:41:2","0","19","[""Black or African-American""]","No","Male","3898167","","","","","","","","168","113","85","17","25","",""
"13","4","rating","canvas-keyboard-response","353","3608405","0.0-11.0-0.171","114","2022-3-30","13:41:2","0","19","[""Black or African-American""]","No","Male","3898167","","","","","","","","68","85","113","10","40","1",""
"null","null","clear_screen","canvas-keyboard-response","354","3608663","0.0-11.0-1.171","114","2022-3-30","13:41:2","0","19","[""Black or African-American""]","No","Male","3898167","","","","","","","","68","85","113","10","40","",""
"13","5","rating","canvas-keyboard-response","355","3608685","0.0-11.0-0.172","114","2022-3-30","13:41:2","0","19","[""Black or African-American""]","No","Male","3898167","","","","","","","","178","113","85","17","40","0",""
"230","6","clear_screen","canvas-keyboard-response","356","3608923","0.0-11.0-1.172","114","2022-3-30","13:41:2","0","19","[""Black or African-American""]","No","Male","3898167","","","","","","","","178","113","85","17","40","",""
"255","2","rating","canvas-keyboard-response","357","3609189","0.0-11.0-0.173","114","2022-3-30","13:41:2","0","19","[""Black or African-American""]","No","Male","3898167","","","","","","","","222","57","140","25","40","1",""
"null","null","clear_screen","canvas-keyboard-response","358","3609446","0.0-11.0-1.173","114","2022-3-30","13:41:2","0","19","[""Black or African-American""]","No","Male","3898167","","","","","","","","222","57","140","25","40","",""
"27","3","rating","canvas-keyboard-response","359","3609484","0.0-11.0-0.174","114","2022-3-30","13:41:2","0","19","[""Black or African-American""]","No","Male","3898167","","","","","","","","268","57","30","33","40","1",""
"null","null","clear_screen","canvas-keyboard-response","360","3609742","0.0-11.0-1.174","114","2022-3-30","13:41:2","0","19","[""Black or African-American""]","No","Male","3898167","","","","","","","","268","57","30","33","40","",""
"45","1","rating","canvas-keyboard-response","361","3609796","0.0-11.0-0.175","114","2022-3-30","13:41:2","0","19","[""Black or African-American""]","No","Male","3898167","","","","","","","","105","140","140","10","33","1",""
"233","5","clear_screen","canvas-keyboard-response","362","3610036","0.0-11.0-1.175","114","2022-3-30","13:41:2","0","19","[""Black or African-American""]","No","Male","3898167","","","","","","","","105","140","140","10","33","",""
"349","4","rating","canvas-keyboard-response","363","3610396","0.0-11.0-0.176","114","2022-3-30","13:41:2","0","19","[""Black or African-American""]","No","Male","3898167","","","","","","","","81","113","30","10","33","1",""
"null","null","clear_screen","canvas-keyboard-response","364","3610655","0.0-11.0-1.176","114","2022-3-30","13:41:2","0","19","[""Black or African-American""]","No","Male","3898167","","","","","","","","81","113","30","10","33","",""
"10","8","rating","canvas-keyboard-response","365","3610676","0.0-11.0-0.177","114","2022-3-30","13:41:2","0","19","[""Black or African-American""]","No","Male","3898167","","","","","","","","48","85","113","10","10","1",""
"null","null","clear_screen","canvas-keyboard-response","366","3610935","0.0-11.0-1.177","114","2022-3-30","13:41:2","0","19","[""Black or African-American""]","No","Male","3898167","","","","","","","","48","85","113","10","10","",""
"139","6","rating","canvas-keyboard-response","367","3611084","0.0-11.0-0.178","114","2022-3-30","13:41:2","0","19","[""Black or African-American""]","No","Male","3898167","","","","","","","","133","57","30","17","25","0",""
"223","5","clear_screen","canvas-keyboard-response","368","3611316","0.0-11.0-1.178","114","2022-3-30","13:41:2","0","19","[""Black or African-American""]","No","Male","3898167","","","","","","","","133","57","30","17","25","",""
"791","7","rating","canvas-keyboard-response","369","3612116","0.0-11.0-0.179","114","2022-3-30","13:41:2","0","19","[""Black or African-American""]","No","Male","3898167","","","","","","","","53","85","113","10","17","0",""
"null","null","clear_screen","canvas-keyboard-response","370","3612375","0.0-11.0-1.179","114","2022-3-30","13:41:2","0","19","[""Black or African-American""]","No","Male","3898167","","","","","","","","53","85","113","10","17","",""
"59","5","rating","canvas-keyboard-response","371","3612444","0.0-11.0-0.180","114","2022-3-30","13:41:2","0","19","[""Black or African-American""]","No","Male","3898167","","","","","","","","2","30","85","10","10","0",""
"null","null","clear_screen","canvas-keyboard-response","372","3612700","0.0-11.0-1.180","114","2022-3-30","13:41:2","0","19","[""Black or African-American""]","No","Male","3898167","","","","","","","","2","30","85","10","10","",""
"124","4","rating","canvas-keyboard-response","373","3612837","0.0-11.0-0.181","114","2022-3-30","13:41:2","0","19","[""Black or African-American""]","No","Male","3898167","","","","","","","","64","85","140","10","33","1",""
"124","6","clear_screen","canvas-keyboard-response","374","3612972","0.0-11.0-1.181","114","2022-3-30","13:41:2","0","19","[""Black or African-American""]","No","Male","3898167","","","","","","","","64","85","140","10","33","",""
"88","5","rating","canvas-keyboard-response","375","3613076","0.0-11.0-0.182","114","2022-3-30","13:41:2","0","19","[""Black or African-American""]","No","Male","3898167","","","","","","","","243","113","85","25","40","0",""
"183","4","clear_screen","canvas-keyboard-response","376","3613269","0.0-11.0-1.182","114","2022-3-30","13:41:2","0","19","[""Black or African-American""]","No","Male","3898167","","","","","","","","243","113","85","25","40","",""
"188","5","rating","canvas-keyboard-response","377","3613468","0.0-11.0-0.183","114","2022-3-30","13:41:2","0","19","[""Black or African-American""]","No","Male","3898167","","","","","","","","104","140","113","10","33","0",""
"null","null","clear_screen","canvas-keyboard-response","378","3613727","0.0-11.0-1.183","114","2022-3-30","13:41:2","0","19","[""Black or African-American""]","No","Male","3898167","","","","","","","","104","140","113","10","33","",""
"292","2","rating","canvas-keyboard-response","379","3614028","0.0-11.0-0.184","114","2022-3-30","13:41:2","0","19","[""Black or African-American""]","No","Male","3898167","","","","","","","","91","140","30","10","17","0",""
"176","3","clear_screen","canvas-keyboard-response","380","3614213","0.0-11.0-1.184","114","2022-3-30","13:41:2","0","19","[""Black or African-American""]","No","Male","3898167","","","","","","","","91","140","30","10","17","",""
"339","2","rating","canvas-keyboard-response","381","3614564","0.0-11.0-0.185","114","2022-3-30","13:41:2","0","19","[""Black or African-American""]","No","Male","3898167","","","","","","","","8","30","113","10","17","0",""
"null","null","clear_screen","canvas-keyboard-response","382","3614822","0.0-11.0-1.185","114","2022-3-30","13:41:2","0","19","[""Black or African-American""]","No","Male","3898167","","","","","","","","8","30","113","10","17","",""
"562","1","rating","canvas-keyboard-response","383","3615396","0.0-11.0-0.186","114","2022-3-30","13:41:2","0","19","[""Black or African-American""]","No","Male","3898167","","","","","","","","179","113","113","17","40","0",""
"null","null","clear_screen","canvas-keyboard-response","384","3615655","0.0-11.0-1.186","114","2022-3-30","13:41:2","0","19","[""Black or African-American""]","No","Male","3898167","","","","","","","","179","113","113","17","40","",""
"16","5","rating","canvas-keyboard-response","385","3615683","0.0-11.0-0.187","114","2022-3-30","13:41:2","0","19","[""Black or African-American""]","No","Male","3898167","","","","","","","","276","85","57","33","40","0",""
"null","null","clear_screen","canvas-keyboard-response","386","3615950","0.0-11.0-1.187","114","2022-3-30","13:41:2","0","19","[""Black or African-American""]","No","Male","3898167","","","","","","","","276","85","57","33","40","",""
"1","6","rating","canvas-keyboard-response","387","3615968","0.0-11.0-0.188","114","2022-3-30","13:41:2","0","19","[""Black or African-American""]","No","Male","3898167","","","","","","","","279","85","140","33","40","1",""
"null","null","clear_screen","canvas-keyboard-response","388","3616228","0.0-11.0-1.188","114","2022-3-30","13:41:2","0","19","[""Black or African-American""]","No","Male","3898167","","","","","","","","279","85","140","33","40","",""
"1","8","rating","canvas-keyboard-response","389","3616239","0.0-11.0-0.189","114","2022-3-30","13:41:2","0","19","[""Black or African-American""]","No","Male","3898167","","","","","","","","51","85","57","10","17","1",""
"null","null","clear_screen","canvas-keyboard-response","390","3616495","0.0-11.0-1.189","114","2022-3-30","13:41:2","0","19","[""Black or African-American""]","No","Male","3898167","","","","","","","","51","85","57","10","17","",""
"642","8","rating","canvas-keyboard-response","391","3617148","0.0-11.0-0.190","114","2022-3-30","13:41:2","0","19","[""Black or African-American""]","No","Male","3898167","","","","","","","","245","113","140","25","40","0",""
"null","null","clear_screen","canvas-keyboard-response","392","3617407","0.0-11.0-1.190","114","2022-3-30","13:41:2","0","19","[""Black or African-American""]","No","Male","3898167","","","","","","","","245","113","140","25","40","",""
"59","7","rating","canvas-keyboard-response","393","3617476","0.0-11.0-0.191","114","2022-3-30","13:41:2","0","19","[""Black or African-American""]","No","Male","3898167","","","","","","","","35","57","85","10","25","1",""
"null","null","clear_screen","canvas-keyboard-response","394","3617734","0.0-11.0-1.191","114","2022-3-30","13:41:2","0","19","[""Black or African-American""]","No","Male","3898167","","","","","","","","35","57","85","10","25","",""
"68","4","rating","canvas-keyboard-response","395","3617812","0.0-11.0-0.192","114","2022-3-30","13:41:2","0","19","[""Black or African-American""]","No","Male","3898167","","","","","","","","32","57","140","10","17","1",""
"null","null","clear_screen","canvas-keyboard-response","396","3618070","0.0-11.0-1.192","114","2022-3-30","13:41:2","0","19","[""Black or African-American""]","No","Male","3898167","","","","","","","","32","57","140","10","17","",""
"30","6","rating","canvas-keyboard-response","397","3618110","0.0-11.0-0.193","114","2022-3-30","13:41:2","0","19","[""Black or African-American""]","No","Male","3898167","","","","","","","","284","113","113","33","40","1",""
"221","5","clear_screen","canvas-keyboard-response","398","3618340","0.0-11.0-1.193","114","2022-3-30","13:41:2","0","19","[""Black or African-American""]","No","Male","3898167","","","","","","","","284","113","113","33","40","",""
"422","5","rating","canvas-keyboard-response","399","3618772","0.0-11.0-0.194","114","2022-3-30","13:41:2","0","19","[""Black or African-American""]","No","Male","3898167","","","","","","","","246","140","30","25","33","0",""
"null","null","clear_screen","canvas-keyboard-response","400","3619034","0.0-11.0-1.194","114","2022-3-30","13:41:2","0","19","[""Black or African-American""]","No","Male","3898167","","","","","","","","246","140","30","25","33","",""
"111","6","rating","canvas-keyboard-response","401","3619155","0.0-11.0-0.195","114","2022-3-30","13:41:2","0","19","[""Black or African-American""]","No","Male","3898167","","","","","","","","67","85","85","10","40","0",""
"null","null","clear_screen","canvas-keyboard-response","402","3619414","0.0-11.0-1.195","114","2022-3-30","13:41:2","0","19","[""Black or African-American""]","No","Male","3898167","","","","","","","","67","85","85","10","40","",""
"28","5","rating","canvas-keyboard-response","403","3619452","0.0-11.0-0.196","114","2022-3-30","13:41:2","0","19","[""Black or African-American""]","No","Male","3898167","","","","","","","","110","140","140","10","40","0",""
"null","null","clear_screen","canvas-keyboard-response","404","3619710","0.0-11.0-1.196","114","2022-3-30","13:41:2","0","19","[""Black or African-American""]","No","Male","3898167","","","","","","","","110","140","140","10","40","",""
"38","4","rating","canvas-keyboard-response","405","3619759","0.0-11.0-0.197","114","2022-3-30","13:41:2","0","19","[""Black or African-American""]","No","Male","3898167","","","","","","","","300","113","140","40","40","0",""
"null","null","clear_screen","canvas-keyboard-response","406","3620017","0.0-11.0-1.197","114","2022-3-30","13:41:2","0","19","[""Black or African-American""]","No","Male","3898167","","","","","","","","300","113","140","40","40","",""
"144","5","rating","canvas-keyboard-response","407","3620172","0.0-11.0-0.198","114","2022-3-30","13:41:2","0","19","[""Black or African-American""]","No","Male","3898167","","","","","","","","33","57","30","10","25","1",""
"null","null","clear_screen","canvas-keyboard-response","408","3620430","0.0-11.0-1.198","114","2022-3-30","13:41:2","0","19","[""Black or African-American""]","No","Male","3898167","","","","","","","","33","57","30","10","25","",""
"52","8","rating","canvas-keyboard-response","409","3620492","0.0-11.0-0.199","114","2022-3-30","13:41:2","0","19","[""Black or African-American""]","No","Male","3898167","","","","","","","","209","30","140","25","40","0",""
"null","null","clear_screen","canvas-keyboard-response","410","3620750","0.0-11.0-1.199","114","2022-3-30","13:41:2","0","19","[""Black or African-American""]","No","Male","3898167","","","","","","","","209","30","140","25","40","",""
"172","7","rating","canvas-keyboard-response","411","3620931","0.0-11.0-0.200","114","2022-3-30","13:41:2","0","19","[""Black or African-American""]","No","Male","3898167","","","","","","","","260","30","30","33","40","1",""
"null","null","clear_screen","canvas-keyboard-response","412","3621190","0.0-11.0-1.200","114","2022-3-30","13:41:2","0","19","[""Black or African-American""]","No","Male","3898167","","","","","","","","260","30","30","33","40","",""
"1347","5","rating","canvas-keyboard-response","413","3622548","0.0-11.0-0.201","114","2022-3-30","13:41:2","0","19","[""Black or African-American""]","No","Male","3898167","","","","","","","","266","57","113","33","33","0",""
"null","null","clear_screen","canvas-keyboard-response","414","3622806","0.0-11.0-1.201","114","2022-3-30","13:41:2","0","19","[""Black or African-American""]","No","Male","3898167","","","","","","","","266","57","113","33","33","",""
"2100","6","rating","canvas-keyboard-response","415","3624916","0.0-11.0-0.202","114","2022-3-30","13:41:2","0","19","[""Black or African-American""]","No","Male","3898167","","","","","","","","136","57","113","17","25","0",""
"null","null","clear_screen","canvas-keyboard-response","416","3625174","0.0-11.0-1.202","114","2022-3-30","13:41:2","0","19","[""Black or African-American""]","No","Male","3898167","","","","","","","","136","57","113","17","25","",""
"1209","8","rating","canvas-keyboard-response","417","3626396","0.0-11.0-0.203","114","2022-3-30","13:41:2","0","19","[""Black or African-American""]","No","Male","3898167","","","","","","","","256","30","57","33","33","1",""
"null","null","clear_screen","canvas-keyboard-response","418","3626654","0.0-11.0-1.203","114","2022-3-30","13:41:2","0","19","[""Black or African-American""]","No","Male","3898167","","","","","","","","256","30","57","33","33","",""
"859","7","rating","canvas-keyboard-response","419","3627524","0.0-11.0-0.204","114","2022-3-30","13:41:2","0","19","[""Black or African-American""]","No","Male","3898167","","","","","","","","238","113","85","25","33","1",""
"null","null","clear_screen","canvas-keyboard-response","420","3627782","0.0-11.0-1.204","114","2022-3-30","13:41:2","0","19","[""Black or African-American""]","No","Male","3898167","","","","","","","","238","113","85","25","33","",""
"1491","7","rating","canvas-keyboard-response","421","3629284","0.0-11.0-0.205","114","2022-3-30","13:41:2","0","19","[""Black or African-American""]","No","Male","3898167","","","","","","","","211","57","113","25","25","1",""
"null","null","clear_screen","canvas-keyboard-response","422","3629543","0.0-11.0-1.205","114","2022-3-30","13:41:2","0","19","[""Black or African-American""]","No","Male","3898167","","","","","","","","211","57","113","25","25","",""
"1714","1","rating","canvas-keyboard-response","423","3631268","0.0-11.0-0.206","114","2022-3-30","13:41:2","0","19","[""Black or African-American""]","No","Male","3898167","","","","","","","","24","30","140","10","40","1",""
"null","null","clear_screen","canvas-keyboard-response","424","3631525","0.0-11.0-1.206","114","2022-3-30","13:41:2","0","19","[""Black or African-American""]","No","Male","3898167","","","","","","","","24","30","140","10","40","",""
"1043","2","rating","canvas-keyboard-response","425","3632580","0.0-11.0-0.207","114","2022-3-30","13:41:2","0","19","[""Black or African-American""]","No","Male","3898167","","","","","","","","112","30","85","17","17","1",""
"null","null","clear_screen","canvas-keyboard-response","426","3632837","0.0-11.0-1.207","114","2022-3-30","13:41:2","0","19","[""Black or African-American""]","No","Male","3898167","","","","","","","","112","30","85","17","17","",""
"2300","3","rating","canvas-keyboard-response","427","3635147","0.0-11.0-0.208","114","2022-3-30","13:41:2","0","19","[""Black or African-American""]","No","Male","3898167","","","","","","","","272","57","140","33","40","0",""
