"rt","response","trialType","trial_type","trial_index","time_elapsed","internal_node_id","sub_n","date","time","leftRight","age","race","ethnicity","gender","exp_duration","success","timeout","failed_images","failed_audio","failed_video","stimulus","view_history","trialID","radius_a","radius_b","angle_a","angle_b","lrCond","question_order"
"3239","{""response"":""116""}","enter-sub-number","survey-html-form","0","3254","0.0-0.0","116","2022-3-31","14:58:50","0","18","[""Asian""]","No","Female","840152","","","","","","","","","","","","","",""
"","","","fullscreen","1","5043","0.0-1.0","116","2022-3-31","14:58:50","0","18","[""Asian""]","No","Female","840152","true","","","","","","","","","","","","",""
"","","","preload","2","5062","0.0-2.0","116","2022-3-31","14:58:50","0","18","[""Asian""]","No","Female","840152","true","false","[]","[]","[]","","","","","","","","",""
"13584","0","","html-button-response","3","18647","0.0-3.0","116","2022-3-31","14:58:50","0","18","[""Asian""]","No","Female","840152","","","","","","<div style= ""font-size:25px;"" <p> <strong> Welcome to the experiment! </strong><br> <p style=""color:#8B0000; font-size:25px;""><strong> Please do NOT exit full screen until you are done with the experiment. </strong> </p><p style=""font-size:25px;color:#8B0000;""> <strong> The experiment will be canceled and your data will be lost <br> if you try to go back or refresh the page at any point during the experiment.</strong> </p><br><p> <strong> Thanks in advance for your contribution to our research! </strong></p>","","","","","","","",""
"242881","","","instructions","4","261532","0.0-4.0","116","2022-3-31","14:58:50","0","18","[""Asian""]","No","Female","840152","","","","","","","[{""page_index"":0,""viewing_time"":229417},{""page_index"":1,""viewing_time"":3359},{""page_index"":2,""viewing_time"":10104}]","","","","","","",""
"null","null","presentPop","canvas-keyboard-response","5","277553","0.0-5.0","116","2022-3-31","14:58:50","0","18","[""Asian""]","No","Female","840152","","","","","","","","","","","","","",""
"null","null","clear_screen","canvas-keyboard-response","6","278319","0.0-6.0","116","2022-3-31","14:58:50","0","18","[""Asian""]","No","Female","840152","","","","","","","","","","","","","",""
"1652","","","instructions","7","279972","0.0-7.0","116","2022-3-31","14:58:50","0","18","[""Asian""]","No","Female","840152","","","","","","","[{""page_index"":0,""viewing_time"":1652}]","","","","","","",""
"null","null","presentPop","canvas-keyboard-response","8","295985","0.0-8.0","116","2022-3-31","14:58:50","0","18","[""Asian""]","No","Female","840152","","","","","","","","","","","","","",""
"null","null","clear_screen","canvas-keyboard-response","9","296748","0.0-9.0","116","2022-3-31","14:58:50","0","18","[""Asian""]","No","Female","840152","","","","","","","","","","","","","",""
"5631","","","instructions","10","302380","0.0-10.0","116","2022-3-31","14:58:50","0","18","[""Asian""]","No","Female","840152","","","","","","","[{""page_index"":0,""viewing_time"":1918},{""page_index"":1,""viewing_time"":3713}]","","","","","","",""
"7826","6","rating","canvas-keyboard-response","11","311220","0.0-11.0-0.0","116","2022-3-31","14:58:50","0","18","[""Asian""]","No","Female","840152","","","","","","","","238","113","85","25","33","1",""
"null","null","clear_screen","canvas-keyboard-response","12","311481","0.0-11.0-1.0","116","2022-3-31","14:58:50","0","18","[""Asian""]","No","Female","840152","","","","","","","","238","113","85","25","33","",""
"2092","3","rating","canvas-keyboard-response","13","313588","0.0-11.0-0.1","116","2022-3-31","14:58:50","0","18","[""Asian""]","No","Female","840152","","","","","","","","42","57","140","10","33","1",""
"null","null","clear_screen","canvas-keyboard-response","14","313846","0.0-11.0-1.1","116","2022-3-31","14:58:50","0","18","[""Asian""]","No","Female","840152","","","","","","","","42","57","140","10","33","",""
"2332","5","rating","canvas-keyboard-response","15","316197","0.0-11.0-0.2","116","2022-3-31","14:58:50","0","18","[""Asian""]","No","Female","840152","","","","","","","","7","30","85","10","17","1",""
"null","null","clear_screen","canvas-keyboard-response","16","316456","0.0-11.0-1.2","116","2022-3-31","14:58:50","0","18","[""Asian""]","No","Female","840152","","","","","","","","7","30","85","10","17","",""
"2678","7","rating","canvas-keyboard-response","17","319140","0.0-11.0-0.3","116","2022-3-31","14:58:50","0","18","[""Asian""]","No","Female","840152","","","","","","","","266","57","113","33","33","0",""
"null","null","clear_screen","canvas-keyboard-response","18","319400","0.0-11.0-1.3","116","2022-3-31","14:58:50","0","18","[""Asian""]","No","Female","840152","","","","","","","","266","57","113","33","33","",""
"4135","9","rating","canvas-keyboard-response","19","323548","0.0-11.0-0.4","116","2022-3-31","14:58:50","0","18","[""Asian""]","No","Female","840152","","","","","","","","260","30","30","33","40","0",""
"null","null","clear_screen","canvas-keyboard-response","20","323807","0.0-11.0-1.4","116","2022-3-31","14:58:50","0","18","[""Asian""]","No","Female","840152","","","","","","","","260","30","30","33","40","",""
"1673","3","rating","canvas-keyboard-response","21","325491","0.0-11.0-0.5","116","2022-3-31","14:58:50","0","18","[""Asian""]","No","Female","840152","","","","","","","","96","140","30","10","25","0",""
"null","null","clear_screen","canvas-keyboard-response","22","325754","0.0-11.0-1.5","116","2022-3-31","14:58:50","0","18","[""Asian""]","No","Female","840152","","","","","","","","96","140","30","10","25","",""
"1048","4","rating","canvas-keyboard-response","23","326812","0.0-11.0-0.6","116","2022-3-31","14:58:50","0","18","[""Asian""]","No","Female","840152","","","","","","","","241","113","30","25","40","0",""
"null","null","clear_screen","canvas-keyboard-response","24","327071","0.0-11.0-1.6","116","2022-3-31","14:58:50","0","18","[""Asian""]","No","Female","840152","","","","","","","","241","113","30","25","40","",""
"1552","4","rating","canvas-keyboard-response","25","328636","0.0-11.0-0.7","116","2022-3-31","14:58:50","0","18","[""Asian""]","No","Female","840152","","","","","","","","230","85","30","25","40","0",""
"null","null","clear_screen","canvas-keyboard-response","26","328897","0.0-11.0-1.7","116","2022-3-31","14:58:50","0","18","[""Asian""]","No","Female","840152","","","","","","","","230","85","30","25","40","",""
"882","3","rating","canvas-keyboard-response","27","329788","0.0-11.0-0.8","116","2022-3-31","14:58:50","0","18","[""Asian""]","No","Female","840152","","","","","","","","99","140","113","10","25","1",""
"null","null","clear_screen","canvas-keyboard-response","28","330047","0.0-11.0-1.8","116","2022-3-31","14:58:50","0","18","[""Asian""]","No","Female","840152","","","","","","","","99","140","113","10","25","",""
"1135","3","rating","canvas-keyboard-response","29","331196","0.0-11.0-0.9","116","2022-3-31","14:58:50","0","18","[""Asian""]","No","Female","840152","","","","","","","","176","113","30","17","40","1",""
"null","null","clear_screen","canvas-keyboard-response","30","331455","0.0-11.0-1.9","116","2022-3-31","14:58:50","0","18","[""Asian""]","No","Female","840152","","","","","","","","176","113","30","17","40","",""
"1234","7","rating","canvas-keyboard-response","31","332700","0.0-11.0-0.10","116","2022-3-31","14:58:50","0","18","[""Asian""]","No","Female","840152","","","","","","","","265","57","85","33","33","1",""
"null","null","clear_screen","canvas-keyboard-response","32","332959","0.0-11.0-1.10","116","2022-3-31","14:58:50","0","18","[""Asian""]","No","Female","840152","","","","","","","","265","57","85","33","33","",""
"1762","4","rating","canvas-keyboard-response","33","334731","0.0-11.0-0.11","116","2022-3-31","14:58:50","0","18","[""Asian""]","No","Female","840152","","","","","","","","77","113","57","10","25","1",""
"null","null","clear_screen","canvas-keyboard-response","34","334991","0.0-11.0-1.11","116","2022-3-31","14:58:50","0","18","[""Asian""]","No","Female","840152","","","","","","","","77","113","57","10","25","",""
"2211","8","rating","canvas-keyboard-response","35","337211","0.0-11.0-0.12","116","2022-3-31","14:58:50","0","18","[""Asian""]","No","Female","840152","","","","","","","","26","57","113","10","10","1",""
"null","null","clear_screen","canvas-keyboard-response","36","337470","0.0-11.0-1.12","116","2022-3-31","14:58:50","0","18","[""Asian""]","No","Female","840152","","","","","","","","26","57","113","10","10","",""
"1728","4","rating","canvas-keyboard-response","37","339211","0.0-11.0-0.13","116","2022-3-31","14:58:50","0","18","[""Asian""]","No","Female","840152","","","","","","","","209","30","140","25","40","0",""
"null","null","clear_screen","canvas-keyboard-response","38","339469","0.0-11.0-1.13","116","2022-3-31","14:58:50","0","18","[""Asian""]","No","Female","840152","","","","","","","","209","30","140","25","40","",""
"2155","6","rating","canvas-keyboard-response","39","341635","0.0-11.0-0.14","116","2022-3-31","14:58:50","0","18","[""Asian""]","No","Female","840152","","","","","","","","74","113","113","10","17","0",""
"null","null","clear_screen","canvas-keyboard-response","40","341897","0.0-11.0-1.14","116","2022-3-31","14:58:50","0","18","[""Asian""]","No","Female","840152","","","","","","","","74","113","113","10","17","",""
"2058","4","rating","canvas-keyboard-response","41","343971","0.0-11.0-0.15","116","2022-3-31","14:58:50","0","18","[""Asian""]","No","Female","840152","","","","","","","","61","85","57","10","33","1",""
"null","null","clear_screen","canvas-keyboard-response","42","344232","0.0-11.0-1.15","116","2022-3-31","14:58:50","0","18","[""Asian""]","No","Female","840152","","","","","","","","61","85","57","10","33","",""
"1916","3","rating","canvas-keyboard-response","43","346163","0.0-11.0-0.16","116","2022-3-31","14:58:50","0","18","[""Asian""]","No","Female","840152","","","","","","","","92","140","57","10","17","1",""
"null","null","clear_screen","canvas-keyboard-response","44","346426","0.0-11.0-1.16","116","2022-3-31","14:58:50","0","18","[""Asian""]","No","Female","840152","","","","","","","","92","140","57","10","17","",""
"2308","8","rating","canvas-keyboard-response","45","348747","0.0-11.0-0.17","116","2022-3-31","14:58:50","0","18","[""Asian""]","No","Female","840152","","","","","","","","212","57","140","25","25","0",""
"null","null","clear_screen","canvas-keyboard-response","46","349007","0.0-11.0-1.17","116","2022-3-31","14:58:50","0","18","[""Asian""]","No","Female","840152","","","","","","","","212","57","140","25","25","",""
"1858","7","rating","canvas-keyboard-response","47","350877","0.0-11.0-0.18","116","2022-3-31","14:58:50","0","18","[""Asian""]","No","Female","840152","","","","","","","","271","57","113","33","40","1",""
"null","null","clear_screen","canvas-keyboard-response","48","351139","0.0-11.0-1.18","116","2022-3-31","14:58:50","0","18","[""Asian""]","No","Female","840152","","","","","","","","271","57","113","33","40","",""
"1924","6","rating","canvas-keyboard-response","49","353076","0.0-11.0-0.19","116","2022-3-31","14:58:50","0","18","[""Asian""]","No","Female","840152","","","","","","","","208","30","113","25","40","0",""
"null","null","clear_screen","canvas-keyboard-response","50","353338","0.0-11.0-1.19","116","2022-3-31","14:58:50","0","18","[""Asian""]","No","Female","840152","","","","","","","","208","30","113","25","40","",""
"2821","7","rating","canvas-keyboard-response","51","356172","0.0-11.0-0.20","116","2022-3-31","14:58:50","0","18","[""Asian""]","No","Female","840152","","","","","","","","20","30","30","10","40","0",""
"null","null","clear_screen","canvas-keyboard-response","52","356431","0.0-11.0-1.20","116","2022-3-31","14:58:50","0","18","[""Asian""]","No","Female","840152","","","","","","","","20","30","30","10","40","",""
"1255","6","rating","canvas-keyboard-response","53","357699","0.0-11.0-0.21","116","2022-3-31","14:58:50","0","18","[""Asian""]","No","Female","840152","","","","","","","","123","30","113","17","33","0",""
"null","null","clear_screen","canvas-keyboard-response","54","357960","0.0-11.0-1.21","116","2022-3-31","14:58:50","0","18","[""Asian""]","No","Female","840152","","","","","","","","123","30","113","17","33","",""
"964","5","rating","canvas-keyboard-response","55","358940","0.0-11.0-0.22","116","2022-3-31","14:58:50","0","18","[""Asian""]","No","Female","840152","","","","","","","","78","113","85","10","25","0",""
"null","null","clear_screen","canvas-keyboard-response","56","359198","0.0-11.0-1.22","116","2022-3-31","14:58:50","0","18","[""Asian""]","No","Female","840152","","","","","","","","78","113","85","10","25","",""
"721","5","rating","canvas-keyboard-response","57","359932","0.0-11.0-0.23","116","2022-3-31","14:58:50","0","18","[""Asian""]","No","Female","840152","","","","","","","","36","57","113","10","25","0",""
"null","null","clear_screen","canvas-keyboard-response","58","360191","0.0-11.0-1.23","116","2022-3-31","14:58:50","0","18","[""Asian""]","No","Female","840152","","","","","","","","36","57","113","10","25","",""
"1095","6","rating","canvas-keyboard-response","59","361299","0.0-11.0-0.24","116","2022-3-31","14:58:50","0","18","[""Asian""]","No","Female","840152","","","","","","","","58","85","113","10","25","1",""
"null","null","clear_screen","canvas-keyboard-response","60","361562","0.0-11.0-1.24","116","2022-3-31","14:58:50","0","18","[""Asian""]","No","Female","840152","","","","","","","","58","85","113","10","25","",""
"4390","5","rating","canvas-keyboard-response","61","365963","0.0-11.0-0.25","116","2022-3-31","14:58:50","0","18","[""Asian""]","No","Female","840152","","","","","","","","173","113","85","17","33","0",""
"null","null","clear_screen","canvas-keyboard-response","62","366223","0.0-11.0-1.25","116","2022-3-31","14:58:50","0","18","[""Asian""]","No","Female","840152","","","","","","","","173","113","85","17","33","",""
"2072","8","rating","canvas-keyboard-response","63","368309","0.0-11.0-0.26","116","2022-3-31","14:58:50","0","18","[""Asian""]","No","Female","840152","","","","","","","","294","30","140","40","40","0",""
"null","null","clear_screen","canvas-keyboard-response","64","368569","0.0-11.0-1.26","116","2022-3-31","14:58:50","0","18","[""Asian""]","No","Female","840152","","","","","","","","294","30","140","40","40","",""
"1404","4","rating","canvas-keyboard-response","65","369987","0.0-11.0-0.27","116","2022-3-31","14:58:50","0","18","[""Asian""]","No","Female","840152","","","","","","","","126","30","57","17","40","1",""
"null","null","clear_screen","canvas-keyboard-response","66","370247","0.0-11.0-1.27","116","2022-3-31","14:58:50","0","18","[""Asian""]","No","Female","840152","","","","","","","","126","30","57","17","40","",""
"1884","8","rating","canvas-keyboard-response","67","372140","0.0-11.0-0.28","116","2022-3-31","14:58:50","0","18","[""Asian""]","No","Female","840152","","","","","","","","130","57","85","17","17","1",""
"null","null","clear_screen","canvas-keyboard-response","68","372402","0.0-11.0-1.28","116","2022-3-31","14:58:50","0","18","[""Asian""]","No","Female","840152","","","","","","","","130","57","85","17","17","",""
"1158","4","rating","canvas-keyboard-response","69","373571","0.0-11.0-0.29","116","2022-3-31","14:58:50","0","18","[""Asian""]","No","Female","840152","","","","","","","","85","113","140","10","33","0",""
"null","null","clear_screen","canvas-keyboard-response","70","373833","0.0-11.0-1.29","116","2022-3-31","14:58:50","0","18","[""Asian""]","No","Female","840152","","","","","","","","85","113","140","10","33","",""
"1083","5","rating","canvas-keyboard-response","71","374931","0.0-11.0-0.30","116","2022-3-31","14:58:50","0","18","[""Asian""]","No","Female","840152","","","","","","","","141","57","113","17","33","0",""
"null","null","clear_screen","canvas-keyboard-response","72","375193","0.0-11.0-1.30","116","2022-3-31","14:58:50","0","18","[""Asian""]","No","Female","840152","","","","","","","","141","57","113","17","33","",""
"1300","7","rating","canvas-keyboard-response","73","376507","0.0-11.0-0.31","116","2022-3-31","14:58:50","0","18","[""Asian""]","No","Female","840152","","","","","","","","28","57","30","10","17","1",""
"null","null","clear_screen","canvas-keyboard-response","74","376765","0.0-11.0-1.31","116","2022-3-31","14:58:50","0","18","[""Asian""]","No","Female","840152","","","","","","","","28","57","30","10","17","",""
"1189","3","rating","canvas-keyboard-response","75","377963","0.0-11.0-0.32","116","2022-3-31","14:58:50","0","18","[""Asian""]","No","Female","840152","","","","","","","","284","113","113","33","40","0",""
"null","null","clear_screen","canvas-keyboard-response","76","378222","0.0-11.0-1.32","116","2022-3-31","14:58:50","0","18","[""Asian""]","No","Female","840152","","","","","","","","284","113","113","33","40","",""
"1472","7","rating","canvas-keyboard-response","77","379707","0.0-11.0-0.33","116","2022-3-31","14:58:50","0","18","[""Asian""]","No","Female","840152","","","","","","","","117","30","85","17","25","1",""
"null","null","clear_screen","canvas-keyboard-response","78","379970","0.0-11.0-1.33","116","2022-3-31","14:58:50","0","18","[""Asian""]","No","Female","840152","","","","","","","","117","30","85","17","25","",""
"838","3","rating","canvas-keyboard-response","79","380819","0.0-11.0-0.34","116","2022-3-31","14:58:50","0","18","[""Asian""]","No","Female","840152","","","","","","","","161","85","57","17","40","1",""
"null","null","clear_screen","canvas-keyboard-response","80","381077","0.0-11.0-1.34","116","2022-3-31","14:58:50","0","18","[""Asian""]","No","Female","840152","","","","","","","","161","85","57","17","40","",""
"448","8","rating","canvas-keyboard-response","81","381540","0.0-11.0-0.35","116","2022-3-31","14:58:50","0","18","[""Asian""]","No","Female","840152","","","","","","","","289","140","113","33","40","1",""
"null","null","clear_screen","canvas-keyboard-response","82","381799","0.0-11.0-1.35","116","2022-3-31","14:58:50","0","18","[""Asian""]","No","Female","840152","","","","","","","","289","140","113","33","40","",""
"820","8","rating","canvas-keyboard-response","83","382635","0.0-11.0-0.36","116","2022-3-31","14:58:50","0","18","[""Asian""]","No","Female","840152","","","","","","","","201","30","57","25","33","0",""
"null","null","clear_screen","canvas-keyboard-response","84","382896","0.0-11.0-1.36","116","2022-3-31","14:58:50","0","18","[""Asian""]","No","Female","840152","","","","","","","","201","30","57","25","33","",""
"1137","8","rating","canvas-keyboard-response","85","384043","0.0-11.0-0.37","116","2022-3-31","14:58:50","0","18","[""Asian""]","No","Female","840152","","","","","","","","237","113","57","25","33","1",""
"null","null","clear_screen","canvas-keyboard-response","86","384301","0.0-11.0-1.37","116","2022-3-31","14:58:50","0","18","[""Asian""]","No","Female","840152","","","","","","","","237","113","57","25","33","",""
"1835","8","rating","canvas-keyboard-response","87","386147","0.0-11.0-0.38","116","2022-3-31","14:58:50","0","18","[""Asian""]","No","Female","840152","","","","","","","","195","140","140","17","40","1",""
"null","null","clear_screen","canvas-keyboard-response","88","386410","0.0-11.0-1.38","116","2022-3-31","14:58:50","0","18","[""Asian""]","No","Female","840152","","","","","","","","195","140","140","17","40","",""
"1244","3","rating","canvas-keyboard-response","89","387667","0.0-11.0-0.39","116","2022-3-31","14:58:50","0","18","[""Asian""]","No","Female","840152","","","","","","","","163","85","113","17","40","1",""
"null","null","clear_screen","canvas-keyboard-response","90","387929","0.0-11.0-1.39","116","2022-3-31","14:58:50","0","18","[""Asian""]","No","Female","840152","","","","","","","","163","85","113","17","40","",""
"656","4","rating","canvas-keyboard-response","91","388596","0.0-11.0-0.40","116","2022-3-31","14:58:50","0","18","[""Asian""]","No","Female","840152","","","","","","","","54","85","140","10","17","0",""
"null","null","clear_screen","canvas-keyboard-response","92","388862","0.0-11.0-1.40","116","2022-3-31","14:58:50","0","18","[""Asian""]","No","Female","840152","","","","","","","","54","85","140","10","17","",""
"545","8","rating","canvas-keyboard-response","93","389419","0.0-11.0-0.41","116","2022-3-31","14:58:50","0","18","[""Asian""]","No","Female","840152","","","","","","","","274","85","140","33","33","0",""
"null","null","clear_screen","canvas-keyboard-response","94","389681","0.0-11.0-1.41","116","2022-3-31","14:58:50","0","18","[""Asian""]","No","Female","840152","","","","","","","","274","85","140","33","33","",""
"1242","3","rating","canvas-keyboard-response","95","390932","0.0-11.0-0.42","116","2022-3-31","14:58:50","0","18","[""Asian""]","No","Female","840152","","","","","","","","196","30","57","25","25","0",""
"null","null","clear_screen","canvas-keyboard-response","96","391192","0.0-11.0-1.42","116","2022-3-31","14:58:50","0","18","[""Asian""]","No","Female","840152","","","","","","","","196","30","57","25","25","",""
"1644","8","rating","canvas-keyboard-response","97","392851","0.0-11.0-0.43","116","2022-3-31","14:58:50","0","18","[""Asian""]","No","Female","840152","","","","","","","","165","113","140","17","17","0",""
"null","null","clear_screen","canvas-keyboard-response","98","393112","0.0-11.0-1.43","116","2022-3-31","14:58:50","0","18","[""Asian""]","No","Female","840152","","","","","","","","165","113","140","17","17","",""
"1633","6","rating","canvas-keyboard-response","99","394756","0.0-11.0-0.44","116","2022-3-31","14:58:50","0","18","[""Asian""]","No","Female","840152","","","","","","","","31","57","113","10","17","0",""
"null","null","clear_screen","canvas-keyboard-response","100","395018","0.0-11.0-1.44","116","2022-3-31","14:58:50","0","18","[""Asian""]","No","Female","840152","","","","","","","","31","57","113","10","17","",""
"860","3","rating","canvas-keyboard-response","101","395892","0.0-11.0-0.45","116","2022-3-31","14:58:50","0","18","[""Asian""]","No","Female","840152","","","","","","","","127","30","85","17","40","1",""
"null","null","clear_screen","canvas-keyboard-response","102","396150","0.0-11.0-1.45","116","2022-3-31","14:58:50","0","18","[""Asian""]","No","Female","840152","","","","","","","","127","30","85","17","40","",""
"1056","5","rating","canvas-keyboard-response","103","397220","0.0-11.0-0.46","116","2022-3-31","14:58:50","0","18","[""Asian""]","No","Female","840152","","","","","","","","68","85","113","10","40","0",""
"null","null","clear_screen","canvas-keyboard-response","104","397481","0.0-11.0-1.46","116","2022-3-31","14:58:50","0","18","[""Asian""]","No","Female","840152","","","","","","","","68","85","113","10","40","",""
"698","3","rating","canvas-keyboard-response","105","398188","0.0-11.0-0.47","116","2022-3-31","14:58:50","0","18","[""Asian""]","No","Female","840152","","","","","","","","9","30","140","10","17","0",""
"null","null","clear_screen","canvas-keyboard-response","106","398447","0.0-11.0-1.47","116","2022-3-31","14:58:50","0","18","[""Asian""]","No","Female","840152","","","","","","","","9","30","140","10","17","",""
"1641","9","rating","canvas-keyboard-response","107","400100","0.0-11.0-0.48","116","2022-3-31","14:58:50","0","18","[""Asian""]","No","Female","840152","","","","","","","","200","30","30","25","33","0",""
"null","null","clear_screen","canvas-keyboard-response","108","400362","0.0-11.0-1.48","116","2022-3-31","14:58:50","0","18","[""Asian""]","No","Female","840152","","","","","","","","200","30","30","25","33","",""
"1379","8","rating","canvas-keyboard-response","109","401755","0.0-11.0-0.49","116","2022-3-31","14:58:50","0","18","[""Asian""]","No","Female","840152","","","","","","","","255","140","140","25","40","0",""
"null","null","clear_screen","canvas-keyboard-response","110","402018","0.0-11.0-1.49","116","2022-3-31","14:58:50","0","18","[""Asian""]","No","Female","840152","","","","","","","","255","140","140","25","40","",""
"1182","5","rating","canvas-keyboard-response","111","403212","0.0-11.0-0.50","116","2022-3-31","14:58:50","0","18","[""Asian""]","No","Female","840152","","","","","","","","131","57","113","17","17","1",""
"null","null","clear_screen","canvas-keyboard-response","112","403470","0.0-11.0-1.50","116","2022-3-31","14:58:50","0","18","[""Asian""]","No","Female","840152","","","","","","","","131","57","113","17","17","",""
"567","5","rating","canvas-keyboard-response","113","404052","0.0-11.0-0.51","116","2022-3-31","14:58:50","0","18","[""Asian""]","No","Female","840152","","","","","","","","24","30","140","10","40","1",""
"null","null","clear_screen","canvas-keyboard-response","114","404313","0.0-11.0-1.51","116","2022-3-31","14:58:50","0","18","[""Asian""]","No","Female","840152","","","","","","","","24","30","140","10","40","",""
"1072","3","rating","canvas-keyboard-response","115","405395","0.0-11.0-0.52","116","2022-3-31","14:58:50","0","18","[""Asian""]","No","Female","840152","","","","","","","","202","30","85","25","33","0",""
"null","null","clear_screen","canvas-keyboard-response","116","405655","0.0-11.0-1.52","116","2022-3-31","14:58:50","0","18","[""Asian""]","No","Female","840152","","","","","","","","202","30","85","25","33","",""
"983","5","rating","canvas-keyboard-response","117","406651","0.0-11.0-0.53","116","2022-3-31","14:58:50","0","18","[""Asian""]","No","Female","840152","","","","","","","","107","140","57","10","40","0",""
"null","null","clear_screen","canvas-keyboard-response","118","406913","0.0-11.0-1.53","116","2022-3-31","14:58:50","0","18","[""Asian""]","No","Female","840152","","","","","","","","107","140","57","10","40","",""
"588","3","rating","canvas-keyboard-response","119","407515","0.0-11.0-0.54","116","2022-3-31","14:58:50","0","18","[""Asian""]","No","Female","840152","","","","","","","","233","85","113","25","40","1",""
"null","null","clear_screen","canvas-keyboard-response","120","407776","0.0-11.0-1.54","116","2022-3-31","14:58:50","0","18","[""Asian""]","No","Female","840152","","","","","","","","233","85","113","25","40","",""
"1417","7","rating","canvas-keyboard-response","121","409203","0.0-11.0-0.55","116","2022-3-31","14:58:50","0","18","[""Asian""]","No","Female","840152","","","","","","","","223","85","113","25","25","1",""
"null","null","clear_screen","canvas-keyboard-response","122","409464","0.0-11.0-1.55","116","2022-3-31","14:58:50","0","18","[""Asian""]","No","Female","840152","","","","","","","","223","85","113","25","25","",""
"718","3","rating","canvas-keyboard-response","123","410196","0.0-11.0-0.56","116","2022-3-31","14:58:50","0","18","[""Asian""]","No","Female","840152","","","","","","","","113","30","113","17","17","0",""
"null","null","clear_screen","canvas-keyboard-response","124","410454","0.0-11.0-1.56","116","2022-3-31","14:58:50","0","18","[""Asian""]","No","Female","840152","","","","","","","","113","30","113","17","17","",""
"486","3","rating","canvas-keyboard-response","125","410955","0.0-11.0-0.57","116","2022-3-31","14:58:50","0","18","[""Asian""]","No","Female","840152","","","","","","","","242","113","57","25","40","1",""
"null","null","clear_screen","canvas-keyboard-response","126","411213","0.0-11.0-1.57","116","2022-3-31","14:58:50","0","18","[""Asian""]","No","Female","840152","","","","","","","","242","113","57","25","40","",""
"420","4","rating","canvas-keyboard-response","127","411643","0.0-11.0-0.58","116","2022-3-31","14:58:50","0","18","[""Asian""]","No","Female","840152","","","","","","","","35","57","85","10","25","1",""
"null","null","clear_screen","canvas-keyboard-response","128","411905","0.0-11.0-1.58","116","2022-3-31","14:58:50","0","18","[""Asian""]","No","Female","840152","","","","","","","","35","57","85","10","25","",""
"332","2","rating","canvas-keyboard-response","129","412251","0.0-11.0-0.59","116","2022-3-31","14:58:50","0","18","[""Asian""]","No","Female","840152","","","","","","","","62","85","85","10","33","1",""
"null","null","clear_screen","canvas-keyboard-response","130","412510","0.0-11.0-1.59","116","2022-3-31","14:58:50","0","18","[""Asian""]","No","Female","840152","","","","","","","","62","85","85","10","33","",""
"290","4","rating","canvas-keyboard-response","131","412811","0.0-11.0-0.60","116","2022-3-31","14:58:50","0","18","[""Asian""]","No","Female","840152","","","","","","","","2","30","85","10","10","0",""
"null","null","clear_screen","canvas-keyboard-response","132","413069","0.0-11.0-1.60","116","2022-3-31","14:58:50","0","18","[""Asian""]","No","Female","840152","","","","","","","","2","30","85","10","10","",""
"332","3","rating","canvas-keyboard-response","133","413412","0.0-11.0-0.61","116","2022-3-31","14:58:50","0","18","[""Asian""]","No","Female","840152","","","","","","","","281","113","30","33","40","1",""
"null","null","clear_screen","canvas-keyboard-response","134","413671","0.0-11.0-1.61","116","2022-3-31","14:58:50","0","18","[""Asian""]","No","Female","840152","","","","","","","","281","113","30","33","40","",""
"413","5","rating","canvas-keyboard-response","135","414099","0.0-11.0-0.62","116","2022-3-31","14:58:50","0","18","[""Asian""]","No","Female","840152","","","","","","","","52","85","85","10","17","1",""
"null","null","clear_screen","canvas-keyboard-response","136","414360","0.0-11.0-1.62","116","2022-3-31","14:58:50","0","18","[""Asian""]","No","Female","840152","","","","","","","","52","85","85","10","17","",""
"1223","8","rating","canvas-keyboard-response","137","415595","0.0-11.0-0.63","116","2022-3-31","14:58:50","0","18","[""Asian""]","No","Female","840152","","","","","","","","95","140","140","10","17","1",""
"null","null","clear_screen","canvas-keyboard-response","138","415854","0.0-11.0-1.63","116","2022-3-31","14:58:50","0","18","[""Asian""]","No","Female","840152","","","","","","","","95","140","140","10","17","",""
"1288","4","rating","canvas-keyboard-response","139","417156","0.0-11.0-0.64","116","2022-3-31","14:58:50","0","18","[""Asian""]","No","Female","840152","","","","","","","","97","140","57","10","25","0",""
"null","null","clear_screen","canvas-keyboard-response","140","417415","0.0-11.0-1.64","116","2022-3-31","14:58:50","0","18","[""Asian""]","No","Female","840152","","","","","","","","97","140","57","10","25","",""
"661","4","rating","canvas-keyboard-response","141","418091","0.0-11.0-0.65","116","2022-3-31","14:58:50","0","18","[""Asian""]","No","Female","840152","","","","","","","","203","30","113","25","33","1",""
"null","null","clear_screen","canvas-keyboard-response","142","418352","0.0-11.0-1.65","116","2022-3-31","14:58:50","0","18","[""Asian""]","No","Female","840152","","","","","","","","203","30","113","25","33","",""
"383","3","rating","canvas-keyboard-response","143","418747","0.0-11.0-0.66","116","2022-3-31","14:58:50","0","18","[""Asian""]","No","Female","840152","","","","","","","","18","30","113","10","33","1",""
"null","null","clear_screen","canvas-keyboard-response","144","419006","0.0-11.0-1.66","116","2022-3-31","14:58:50","0","18","[""Asian""]","No","Female","840152","","","","","","","","18","30","113","10","33","",""
"433","5","rating","canvas-keyboard-response","145","419451","0.0-11.0-0.67","116","2022-3-31","14:58:50","0","18","[""Asian""]","No","Female","840152","","","","","","","","93","140","85","10","17","0",""
"null","null","clear_screen","canvas-keyboard-response","146","419713","0.0-11.0-1.67","116","2022-3-31","14:58:50","0","18","[""Asian""]","No","Female","840152","","","","","","","","93","140","85","10","17","",""
"631","3","rating","canvas-keyboard-response","147","420356","0.0-11.0-0.68","116","2022-3-31","14:58:50","0","18","[""Asian""]","No","Female","840152","","","","","","","","91","140","30","10","17","1",""
"null","null","clear_screen","canvas-keyboard-response","148","420613","0.0-11.0-1.68","116","2022-3-31","14:58:50","0","18","[""Asian""]","No","Female","840152","","","","","","","","91","140","30","10","17","",""
"531","4","rating","canvas-keyboard-response","149","421155","0.0-11.0-0.69","116","2022-3-31","14:58:50","0","18","[""Asian""]","No","Female","840152","","","","","","","","205","30","30","25","40","1",""
"null","null","clear_screen","canvas-keyboard-response","150","421415","0.0-11.0-1.69","116","2022-3-31","14:58:50","0","18","[""Asian""]","No","Female","840152","","","","","","","","205","30","30","25","40","",""
"678","3","rating","canvas-keyboard-response","151","422108","0.0-11.0-0.70","116","2022-3-31","14:58:50","0","18","[""Asian""]","No","Female","840152","","","","","","","","159","85","140","17","33","0",""
"null","null","clear_screen","canvas-keyboard-response","152","422370","0.0-11.0-1.70","116","2022-3-31","14:58:50","0","18","[""Asian""]","No","Female","840152","","","","","","","","159","85","140","17","33","",""
"1771","5","rating","canvas-keyboard-response","153","424155","0.0-11.0-0.71","116","2022-3-31","14:58:50","0","18","[""Asian""]","No","Female","840152","","","","","","","","25","57","85","10","10","1",""
"null","null","clear_screen","canvas-keyboard-response","154","424415","0.0-11.0-1.71","116","2022-3-31","14:58:50","0","18","[""Asian""]","No","Female","840152","","","","","","","","25","57","85","10","10","",""
"1951","6","rating","canvas-keyboard-response","155","426380","0.0-11.0-0.72","116","2022-3-31","14:58:50","0","18","[""Asian""]","No","Female","840152","","","","","","","","110","140","140","10","40","1",""
"null","null","clear_screen","canvas-keyboard-response","156","426638","0.0-11.0-1.72","116","2022-3-31","14:58:50","0","18","[""Asian""]","No","Female","840152","","","","","","","","110","140","140","10","40","",""
"2986","3","rating","canvas-keyboard-response","157","429635","0.0-11.0-0.73","116","2022-3-31","14:58:50","0","18","[""Asian""]","No","Female","840152","","","","","","","","246","140","30","25","33","1",""
"null","null","clear_screen","canvas-keyboard-response","158","429896","0.0-11.0-1.73","116","2022-3-31","14:58:50","0","18","[""Asian""]","No","Female","840152","","","","","","","","246","140","30","25","33","",""
"869","3","rating","canvas-keyboard-response","159","430780","0.0-11.0-0.74","116","2022-3-31","14:58:50","0","18","[""Asian""]","No","Female","840152","","","","","","","","232","85","85","25","40","0",""
"null","null","clear_screen","canvas-keyboard-response","160","431039","0.0-11.0-1.74","116","2022-3-31","14:58:50","0","18","[""Asian""]","No","Female","840152","","","","","","","","232","85","85","25","40","",""
"1478","3","rating","canvas-keyboard-response","161","432532","0.0-11.0-0.75","116","2022-3-31","14:58:50","0","18","[""Asian""]","No","Female","840152","","","","","","","","221","57","113","25","40","1",""
"null","null","clear_screen","canvas-keyboard-response","162","432793","0.0-11.0-1.75","116","2022-3-31","14:58:50","0","18","[""Asian""]","No","Female","840152","","","","","","","","221","57","113","25","40","",""
"603","2","rating","canvas-keyboard-response","163","433412","0.0-11.0-0.76","116","2022-3-31","14:58:50","0","18","[""Asian""]","No","Female","840152","","","","","","","","60","85","30","10","33","0",""
"null","null","clear_screen","canvas-keyboard-response","164","433671","0.0-11.0-1.76","116","2022-3-31","14:58:50","0","18","[""Asian""]","No","Female","840152","","","","","","","","60","85","30","10","33","",""
"649","5","rating","canvas-keyboard-response","165","434331","0.0-11.0-0.77","116","2022-3-31","14:58:50","0","18","[""Asian""]","No","Female","840152","","","","","","","","30","57","85","10","17","0",""
"null","null","clear_screen","canvas-keyboard-response","166","434591","0.0-11.0-1.77","116","2022-3-31","14:58:50","0","18","[""Asian""]","No","Female","840152","","","","","","","","30","57","85","10","17","",""
"694","4","rating","canvas-keyboard-response","167","435300","0.0-11.0-0.78","116","2022-3-31","14:58:50","0","18","[""Asian""]","No","Female","840152","","","","","","","","267","57","140","33","33","1",""
"null","null","clear_screen","canvas-keyboard-response","168","435558","0.0-11.0-1.78","116","2022-3-31","14:58:50","0","18","[""Asian""]","No","Female","840152","","","","","","","","267","57","140","33","33","",""
"937","4","rating","canvas-keyboard-response","169","436507","0.0-11.0-0.79","116","2022-3-31","14:58:50","0","18","[""Asian""]","No","Female","840152","","","","","","","","158","85","113","17","33","1",""
"null","null","clear_screen","canvas-keyboard-response","170","436766","0.0-11.0-1.79","116","2022-3-31","14:58:50","0","18","[""Asian""]","No","Female","840152","","","","","","","","158","85","113","17","33","",""
"1457","5","rating","canvas-keyboard-response","171","438236","0.0-11.0-0.80","116","2022-3-31","14:58:50","0","18","[""Asian""]","No","Female","840152","","","","","","","","135","57","85","17","25","1",""
"null","null","clear_screen","canvas-keyboard-response","172","438494","0.0-11.0-1.80","116","2022-3-31","14:58:50","0","18","[""Asian""]","No","Female","840152","","","","","","","","135","57","85","17","25","",""
"1525","3","rating","canvas-keyboard-response","173","440027","0.0-11.0-0.81","116","2022-3-31","14:58:50","0","18","[""Asian""]","No","Female","840152","","","","","","","","119","30","140","17","25","1",""
"null","null","clear_screen","canvas-keyboard-response","174","440287","0.0-11.0-1.81","116","2022-3-31","14:58:50","0","18","[""Asian""]","No","Female","840152","","","","","","","","119","30","140","17","25","",""
"776","4","rating","canvas-keyboard-response","175","441075","0.0-11.0-0.82","116","2022-3-31","14:58:50","0","18","[""Asian""]","No","Female","840152","","","","","","","","150","85","30","17","25","1",""
"null","null","clear_screen","canvas-keyboard-response","176","441334","0.0-11.0-1.82","116","2022-3-31","14:58:50","0","18","[""Asian""]","No","Female","840152","","","","","","","","150","85","30","17","25","",""
"391","4","rating","canvas-keyboard-response","177","441739","0.0-11.0-0.83","116","2022-3-31","14:58:50","0","18","[""Asian""]","No","Female","840152","","","","","","","","1","30","57","10","10","1",""
"null","null","clear_screen","canvas-keyboard-response","178","442000","0.0-11.0-1.83","116","2022-3-31","14:58:50","0","18","[""Asian""]","No","Female","840152","","","","","","","","1","30","57","10","10","",""
"681","4","rating","canvas-keyboard-response","179","442690","0.0-11.0-0.84","116","2022-3-31","14:58:50","0","18","[""Asian""]","No","Female","840152","","","","","","","","286","140","30","33","40","1",""
"null","null","clear_screen","canvas-keyboard-response","180","442953","0.0-11.0-1.84","116","2022-3-31","14:58:50","0","18","[""Asian""]","No","Female","840152","","","","","","","","286","140","30","33","40","",""
"1504","4","rating","canvas-keyboard-response","181","444468","0.0-11.0-0.85","116","2022-3-31","14:58:50","0","18","[""Asian""]","No","Female","840152","","","","","","","","124","30","140","17","33","1",""
"null","null","clear_screen","canvas-keyboard-response","182","444722","0.0-11.0-1.85","116","2022-3-31","14:58:50","0","18","[""Asian""]","No","Female","840152","","","","","","","","124","30","140","17","33","",""
"707","5","rating","canvas-keyboard-response","183","445443","0.0-11.0-0.86","116","2022-3-31","14:58:50","0","18","[""Asian""]","No","Female","840152","","","","","","","","21","30","57","10","40","1",""
"null","null","clear_screen","canvas-keyboard-response","184","445702","0.0-11.0-1.86","116","2022-3-31","14:58:50","0","18","[""Asian""]","No","Female","840152","","","","","","","","21","30","57","10","40","",""
"1351","7","rating","canvas-keyboard-response","185","447067","0.0-11.0-0.87","116","2022-3-31","14:58:50","0","18","[""Asian""]","No","Female","840152","","","","","","","","190","140","140","17","33","0",""
"null","null","clear_screen","canvas-keyboard-response","186","447329","0.0-11.0-1.87","116","2022-3-31","14:58:50","0","18","[""Asian""]","No","Female","840152","","","","","","","","190","140","140","17","33","",""
"1375","7","rating","canvas-keyboard-response","187","448716","0.0-11.0-0.88","116","2022-3-31","14:58:50","0","18","[""Asian""]","No","Female","840152","","","","","","","","116","30","57","17","25","0",""
"null","null","clear_screen","canvas-keyboard-response","188","448974","0.0-11.0-1.88","116","2022-3-31","14:58:50","0","18","[""Asian""]","No","Female","840152","","","","","","","","116","30","57","17","25","",""
"806","4","rating","canvas-keyboard-response","189","449796","0.0-11.0-0.89","116","2022-3-31","14:58:50","0","18","[""Asian""]","No","Female","840152","","","","","","","","259","30","140","33","33","1",""
"null","null","clear_screen","canvas-keyboard-response","190","450060","0.0-11.0-1.89","116","2022-3-31","14:58:50","0","18","[""Asian""]","No","Female","840152","","","","","","","","259","30","140","33","33","",""
"532","4","rating","canvas-keyboard-response","191","450604","0.0-11.0-0.90","116","2022-3-31","14:58:50","0","18","[""Asian""]","No","Female","840152","","","","","","","","13","30","113","10","25","1",""
"null","null","clear_screen","canvas-keyboard-response","192","450863","0.0-11.0-1.90","116","2022-3-31","14:58:50","0","18","[""Asian""]","No","Female","840152","","","","","","","","13","30","113","10","25","",""
"288","3","rating","canvas-keyboard-response","193","451163","0.0-11.0-0.91","116","2022-3-31","14:58:50","0","18","[""Asian""]","No","Female","840152","","","","","","","","46","57","113","10","40","1",""
"null","null","clear_screen","canvas-keyboard-response","194","451425","0.0-11.0-1.91","116","2022-3-31","14:58:50","0","18","[""Asian""]","No","Female","840152","","","","","","","","46","57","113","10","40","",""
"439","4","rating","canvas-keyboard-response","195","451875","0.0-11.0-0.92","116","2022-3-31","14:58:50","0","18","[""Asian""]","No","Female","840152","","","","","","","","102","140","57","10","33","1",""
"null","null","clear_screen","canvas-keyboard-response","196","452137","0.0-11.0-1.92","116","2022-3-31","14:58:50","0","18","[""Asian""]","No","Female","840152","","","","","","","","102","140","57","10","33","",""
"1479","7","rating","canvas-keyboard-response","197","453627","0.0-11.0-0.93","116","2022-3-31","14:58:50","0","18","[""Asian""]","No","Female","840152","","","","","","","","134","57","57","17","25","1",""
"null","null","clear_screen","canvas-keyboard-response","198","453887","0.0-11.0-1.93","116","2022-3-31","14:58:50","0","18","[""Asian""]","No","Female","840152","","","","","","","","134","57","57","17","25","",""
"965","7","rating","canvas-keyboard-response","199","454868","0.0-11.0-0.94","116","2022-3-31","14:58:50","0","18","[""Asian""]","No","Female","840152","","","","","","","","48","85","113","10","10","0",""
"null","null","clear_screen","canvas-keyboard-response","200","455126","0.0-11.0-1.94","116","2022-3-31","14:58:50","0","18","[""Asian""]","No","Female","840152","","","","","","","","48","85","113","10","10","",""
"791","8","rating","canvas-keyboard-response","201","455931","0.0-11.0-0.95","116","2022-3-31","14:58:50","0","18","[""Asian""]","No","Female","840152","","","","","","","","115","30","30","17","25","1",""
"null","null","clear_screen","canvas-keyboard-response","202","456190","0.0-11.0-1.95","116","2022-3-31","14:58:50","0","18","[""Asian""]","No","Female","840152","","","","","","","","115","30","30","17","25","",""
"1144","3","rating","canvas-keyboard-response","203","457348","0.0-11.0-0.96","116","2022-3-31","14:58:50","0","18","[""Asian""]","No","Female","840152","","","","","","","","4","30","140","10","10","0",""
"null","null","clear_screen","canvas-keyboard-response","204","457609","0.0-11.0-1.96","116","2022-3-31","14:58:50","0","18","[""Asian""]","No","Female","840152","","","","","","","","4","30","140","10","10","",""
"679","7","rating","canvas-keyboard-response","205","458299","0.0-11.0-0.97","116","2022-3-31","14:58:50","0","18","[""Asian""]","No","Female","840152","","","","","","","","216","57","113","25","33","1",""
"null","null","clear_screen","canvas-keyboard-response","206","458562","0.0-11.0-1.97","116","2022-3-31","14:58:50","0","18","[""Asian""]","No","Female","840152","","","","","","","","216","57","113","25","33","",""
"557","4","rating","canvas-keyboard-response","207","459132","0.0-11.0-0.98","116","2022-3-31","14:58:50","0","18","[""Asian""]","No","Female","840152","","","","","","","","204","30","140","25","33","0",""
"null","null","clear_screen","canvas-keyboard-response","208","459395","0.0-11.0-1.98","116","2022-3-31","14:58:50","0","18","[""Asian""]","No","Female","840152","","","","","","","","204","30","140","25","33","",""
"434","3","rating","canvas-keyboard-response","209","459843","0.0-11.0-0.99","116","2022-3-31","14:58:50","0","18","[""Asian""]","No","Female","840152","","","","","","","","103","140","85","10","33","1",""
"null","null","clear_screen","canvas-keyboard-response","210","460103","0.0-11.0-1.99","116","2022-3-31","14:58:50","0","18","[""Asian""]","No","Female","840152","","","","","","","","103","140","85","10","33","",""
"446","5","rating","canvas-keyboard-response","211","460564","0.0-11.0-0.100","116","2022-3-31","14:58:50","0","18","[""Asian""]","No","Female","840152","","","","","","","","258","30","113","33","33","1",""
"null","null","clear_screen","canvas-keyboard-response","212","460826","0.0-11.0-1.100","116","2022-3-31","14:58:50","0","18","[""Asian""]","No","Female","840152","","","","","","","","258","30","113","33","33","",""
"431","3","rating","canvas-keyboard-response","213","461267","0.0-11.0-0.101","116","2022-3-31","14:58:50","0","18","[""Asian""]","No","Female","840152","","","","","","","","11","30","57","10","25","0",""
"null","null","clear_screen","canvas-keyboard-response","214","461529","0.0-11.0-1.101","116","2022-3-31","14:58:50","0","18","[""Asian""]","No","Female","840152","","","","","","","","11","30","57","10","25","",""
"663","4","rating","canvas-keyboard-response","215","462204","0.0-11.0-0.102","116","2022-3-31","14:58:50","0","18","[""Asian""]","No","Female","840152","","","","","","","","299","85","140","40","40","0",""
"null","null","clear_screen","canvas-keyboard-response","216","462463","0.0-11.0-1.102","116","2022-3-31","14:58:50","0","18","[""Asian""]","No","Female","840152","","","","","","","","299","85","140","40","40","",""
"455","3","rating","canvas-keyboard-response","217","462932","0.0-11.0-0.103","116","2022-3-31","14:58:50","0","18","[""Asian""]","No","Female","840152","","","","","","","","160","85","30","17","40","1",""
"null","null","clear_screen","canvas-keyboard-response","218","463194","0.0-11.0-1.103","116","2022-3-31","14:58:50","0","18","[""Asian""]","No","Female","840152","","","","","","","","160","85","30","17","40","",""
"348","5","rating","canvas-keyboard-response","219","463555","0.0-11.0-0.104","116","2022-3-31","14:58:50","0","18","[""Asian""]","No","Female","840152","","","","","","","","140","57","85","17","33","1",""
"null","null","clear_screen","canvas-keyboard-response","220","463815","0.0-11.0-1.104","116","2022-3-31","14:58:50","0","18","[""Asian""]","No","Female","840152","","","","","","","","140","57","85","17","33","",""
"314","3","rating","canvas-keyboard-response","221","464139","0.0-11.0-0.105","116","2022-3-31","14:58:50","0","18","[""Asian""]","No","Female","840152","","","","","","","","148","85","113","17","17","0",""
"null","null","clear_screen","canvas-keyboard-response","222","464400","0.0-11.0-1.105","116","2022-3-31","14:58:50","0","18","[""Asian""]","No","Female","840152","","","","","","","","148","85","113","17","17","",""
"578","4","rating","canvas-keyboard-response","223","464988","0.0-11.0-0.106","116","2022-3-31","14:58:50","0","18","[""Asian""]","No","Female","840152","","","","","","","","217","57","140","25","33","1",""
"null","null","clear_screen","canvas-keyboard-response","224","465250","0.0-11.0-1.106","116","2022-3-31","14:58:50","0","18","[""Asian""]","No","Female","840152","","","","","","","","217","57","140","25","33","",""
"515","2","rating","canvas-keyboard-response","225","465779","0.0-11.0-0.107","116","2022-3-31","14:58:50","0","18","[""Asian""]","No","Female","840152","","","","","","","","282","113","57","33","40","1",""
"null","null","clear_screen","canvas-keyboard-response","226","466041","0.0-11.0-1.107","116","2022-3-31","14:58:50","0","18","[""Asian""]","No","Female","840152","","","","","","","","282","113","57","33","40","",""
"1743","7","rating","canvas-keyboard-response","227","467796","0.0-11.0-0.108","116","2022-3-31","14:58:50","0","18","[""Asian""]","No","Female","840152","","","","","","","","104","140","113","10","33","0",""
"null","null","clear_screen","canvas-keyboard-response","228","468057","0.0-11.0-1.108","116","2022-3-31","14:58:50","0","18","[""Asian""]","No","Female","840152","","","","","","","","104","140","113","10","33","",""
"1467","6","rating","canvas-keyboard-response","229","469539","0.0-11.0-0.109","116","2022-3-31","14:58:50","0","18","[""Asian""]","No","Female","840152","","","","","","","","10","30","30","10","25","1",""
"null","null","clear_screen","canvas-keyboard-response","230","469797","0.0-11.0-1.109","116","2022-3-31","14:58:50","0","18","[""Asian""]","No","Female","840152","","","","","","","","10","30","30","10","25","",""
"993","7","rating","canvas-keyboard-response","231","470804","0.0-11.0-0.110","116","2022-3-31","14:58:50","0","18","[""Asian""]","No","Female","840152","","","","","","","","170","113","140","17","25","1",""
"null","null","clear_screen","canvas-keyboard-response","232","471062","0.0-11.0-1.110","116","2022-3-31","14:58:50","0","18","[""Asian""]","No","Female","840152","","","","","","","","170","113","140","17","25","",""
"1350","5","rating","canvas-keyboard-response","233","472428","0.0-11.0-0.111","116","2022-3-31","14:58:50","0","18","[""Asian""]","No","Female","840152","","","","","","","","65","85","30","10","40","1",""
"null","null","clear_screen","canvas-keyboard-response","234","472686","0.0-11.0-1.111","116","2022-3-31","14:58:50","0","18","[""Asian""]","No","Female","840152","","","","","","","","65","85","30","10","40","",""
"1779","4","rating","canvas-keyboard-response","235","474476","0.0-11.0-0.112","116","2022-3-31","14:58:50","0","18","[""Asian""]","No","Female","840152","","","","","","","","50","85","30","10","17","1",""
"null","null","clear_screen","canvas-keyboard-response","236","474734","0.0-11.0-1.112","116","2022-3-31","14:58:50","0","18","[""Asian""]","No","Female","840152","","","","","","","","50","85","30","10","17","",""
"7281","4","rating","canvas-keyboard-response","237","482027","0.0-11.0-0.113","116","2022-3-31","14:58:50","0","18","[""Asian""]","No","Female","840152","","","","","","","","188","140","85","17","33","1",""
"null","null","clear_screen","canvas-keyboard-response","238","482289","0.0-11.0-1.113","116","2022-3-31","14:58:50","0","18","[""Asian""]","No","Female","840152","","","","","","","","188","140","85","17","33","",""
"2340","7","rating","canvas-keyboard-response","239","484643","0.0-11.0-0.114","116","2022-3-31","14:58:50","0","18","[""Asian""]","No","Female","840152","","","","","","","","184","140","113","17","25","0",""
"null","null","clear_screen","canvas-keyboard-response","240","484902","0.0-11.0-1.114","116","2022-3-31","14:58:50","0","18","[""Asian""]","No","Female","840152","","","","","","","","184","140","113","17","25","",""
"2823","5","rating","canvas-keyboard-response","241","487739","0.0-11.0-0.115","116","2022-3-31","14:58:50","0","18","[""Asian""]","No","Female","840152","","","","","","","","234","85","140","25","40","1",""
"null","null","clear_screen","canvas-keyboard-response","242","487999","0.0-11.0-1.115","116","2022-3-31","14:58:50","0","18","[""Asian""]","No","Female","840152","","","","","","","","234","85","140","25","40","",""
"2538","3","rating","canvas-keyboard-response","243","490547","0.0-11.0-0.116","116","2022-3-31","14:58:50","0","18","[""Asian""]","No","Female","840152","","","","","","","","174","113","113","17","33","0",""
"null","null","clear_screen","canvas-keyboard-response","244","490806","0.0-11.0-1.116","116","2022-3-31","14:58:50","0","18","[""Asian""]","No","Female","840152","","","","","","","","174","113","113","17","33","",""
"1875","4","rating","canvas-keyboard-response","245","492691","0.0-11.0-0.117","116","2022-3-31","14:58:50","0","18","[""Asian""]","No","Female","840152","","","","","","","","69","85","140","10","40","1",""
"null","null","clear_screen","canvas-keyboard-response","246","492951","0.0-11.0-1.117","116","2022-3-31","14:58:50","0","18","[""Asian""]","No","Female","840152","","","","","","","","69","85","140","10","40","",""
"1567","5","rating","canvas-keyboard-response","247","494533","0.0-11.0-0.118","116","2022-3-31","14:58:50","0","18","[""Asian""]","No","Female","840152","","","","","","","","41","57","113","10","33","0",""
"null","null","clear_screen","canvas-keyboard-response","248","494795","0.0-11.0-1.118","116","2022-3-31","14:58:50","0","18","[""Asian""]","No","Female","840152","","","","","","","","41","57","113","10","33","",""
"1044","6","rating","canvas-keyboard-response","249","495851","0.0-11.0-0.119","116","2022-3-31","14:58:50","0","18","[""Asian""]","No","Female","840152","","","","","","","","53","85","113","10","17","0",""
"null","null","clear_screen","canvas-keyboard-response","250","496114","0.0-11.0-1.119","116","2022-3-31","14:58:50","0","18","[""Asian""]","No","Female","840152","","","","","","","","53","85","113","10","17","",""
"1061","5","rating","canvas-keyboard-response","251","497188","0.0-11.0-0.120","116","2022-3-31","14:58:50","0","18","[""Asian""]","No","Female","840152","","","","","","","","177","113","57","17","40","1",""
"null","null","clear_screen","canvas-keyboard-response","252","497448","0.0-11.0-1.120","116","2022-3-31","14:58:50","0","18","[""Asian""]","No","Female","840152","","","","","","","","177","113","57","17","40","",""
"1542","5","rating","canvas-keyboard-response","253","499004","0.0-11.0-0.121","116","2022-3-31","14:58:50","0","18","[""Asian""]","No","Female","840152","","","","","","","","88","113","85","10","40","1",""
"null","null","clear_screen","canvas-keyboard-response","254","499265","0.0-11.0-1.121","116","2022-3-31","14:58:50","0","18","[""Asian""]","No","Female","840152","","","","","","","","88","113","85","10","40","",""
"1649","7","rating","canvas-keyboard-response","255","500924","0.0-11.0-0.122","116","2022-3-31","14:58:50","0","18","[""Asian""]","No","Female","840152","","","","","","","","214","57","57","25","33","0",""
"null","null","clear_screen","canvas-keyboard-response","256","501183","0.0-11.0-1.122","116","2022-3-31","14:58:50","0","18","[""Asian""]","No","Female","840152","","","","","","","","214","57","57","25","33","",""
"1457","7","rating","canvas-keyboard-response","257","502651","0.0-11.0-0.123","116","2022-3-31","14:58:50","0","18","[""Asian""]","No","Female","840152","","","","","","","","269","57","57","33","40","0",""
"null","null","clear_screen","canvas-keyboard-response","258","502913","0.0-11.0-1.123","116","2022-3-31","14:58:50","0","18","[""Asian""]","No","Female","840152","","","","","","","","269","57","57","33","40","",""
"1095","6","rating","canvas-keyboard-response","259","504019","0.0-11.0-0.124","116","2022-3-31","14:58:50","0","18","[""Asian""]","No","Female","840152","","","","","","","","125","30","30","17","40","0",""
"null","null","clear_screen","canvas-keyboard-response","260","504282","0.0-11.0-1.124","116","2022-3-31","14:58:50","0","18","[""Asian""]","No","Female","840152","","","","","","","","125","30","30","17","40","",""
"895","5","rating","canvas-keyboard-response","261","505187","0.0-11.0-0.125","116","2022-3-31","14:58:50","0","18","[""Asian""]","No","Female","840152","","","","","","","","12","30","85","10","25","0",""
"null","null","clear_screen","canvas-keyboard-response","262","505447","0.0-11.0-1.125","116","2022-3-31","14:58:50","0","18","[""Asian""]","No","Female","840152","","","","","","","","12","30","85","10","25","",""
"1491","5","rating","canvas-keyboard-response","263","506948","0.0-11.0-0.126","116","2022-3-31","14:58:50","0","18","[""Asian""]","No","Female","840152","","","","","","","","44","57","57","10","40","1",""
"null","null","clear_screen","canvas-keyboard-response","264","507206","0.0-11.0-1.126","116","2022-3-31","14:58:50","0","18","[""Asian""]","No","Female","840152","","","","","","","","44","57","57","10","40","",""
"1027","5","rating","canvas-keyboard-response","265","508244","0.0-11.0-0.127","116","2022-3-31","14:58:50","0","18","[""Asian""]","No","Female","840152","","","","","","","","215","57","85","25","33","0",""
"null","null","clear_screen","canvas-keyboard-response","266","508505","0.0-11.0-1.127","116","2022-3-31","14:58:50","0","18","[""Asian""]","No","Female","840152","","","","","","","","215","57","85","25","33","",""
"748","4","rating","canvas-keyboard-response","267","509268","0.0-11.0-0.128","116","2022-3-31","14:58:50","0","18","[""Asian""]","No","Female","840152","","","","","","","","63","85","113","10","33","0",""
"null","null","clear_screen","canvas-keyboard-response","268","509526","0.0-11.0-1.128","116","2022-3-31","14:58:50","0","18","[""Asian""]","No","Female","840152","","","","","","","","63","85","113","10","33","",""
"1066","4","rating","canvas-keyboard-response","269","510603","0.0-11.0-0.129","116","2022-3-31","14:58:50","0","18","[""Asian""]","No","Female","840152","","","","","","","","51","85","57","10","17","0",""
"null","null","clear_screen","canvas-keyboard-response","270","510866","0.0-11.0-1.129","116","2022-3-31","14:58:50","0","18","[""Asian""]","No","Female","840152","","","","","","","","51","85","57","10","17","",""
"1294","4","rating","canvas-keyboard-response","271","512171","0.0-11.0-0.130","116","2022-3-31","14:58:50","0","18","[""Asian""]","No","Female","840152","","","","","","","","106","140","30","10","40","0",""
"null","null","clear_screen","canvas-keyboard-response","272","512433","0.0-11.0-1.130","116","2022-3-31","14:58:50","0","18","[""Asian""]","No","Female","840152","","","","","","","","106","140","30","10","40","",""
"991","4","rating","canvas-keyboard-response","273","513435","0.0-11.0-0.131","116","2022-3-31","14:58:50","0","18","[""Asian""]","No","Female","840152","","","","","","","","76","113","30","10","25","1",""
"null","null","clear_screen","canvas-keyboard-response","274","513694","0.0-11.0-1.131","116","2022-3-31","14:58:50","0","18","[""Asian""]","No","Female","840152","","","","","","","","76","113","30","10","25","",""
"1832","5","rating","canvas-keyboard-response","275","515539","0.0-11.0-0.132","116","2022-3-31","14:58:50","0","18","[""Asian""]","No","Female","840152","","","","","","","","243","113","85","25","40","1",""
"null","null","clear_screen","canvas-keyboard-response","276","515802","0.0-11.0-1.132","116","2022-3-31","14:58:50","0","18","[""Asian""]","No","Female","840152","","","","","","","","243","113","85","25","40","",""
"1256","3","rating","canvas-keyboard-response","277","517067","0.0-11.0-0.133","116","2022-3-31","14:58:50","0","18","[""Asian""]","No","Female","840152","","","","","","","","23","30","113","10","40","1",""
"null","null","clear_screen","canvas-keyboard-response","278","517326","0.0-11.0-1.133","116","2022-3-31","14:58:50","0","18","[""Asian""]","No","Female","840152","","","","","","","","23","30","113","10","40","",""
"1088","5","rating","canvas-keyboard-response","279","518427","0.0-11.0-0.134","116","2022-3-31","14:58:50","0","18","[""Asian""]","No","Female","840152","","","","","","","","143","57","30","17","40","1",""
"null","null","clear_screen","canvas-keyboard-response","280","518689","0.0-11.0-1.134","116","2022-3-31","14:58:50","0","18","[""Asian""]","No","Female","840152","","","","","","","","143","57","30","17","40","",""
"1623","8","rating","canvas-keyboard-response","281","520323","0.0-11.0-0.135","116","2022-3-31","14:58:50","0","18","[""Asian""]","No","Female","840152","","","","","","","","162","85","85","17","40","1",""
"null","null","clear_screen","canvas-keyboard-response","282","520585","0.0-11.0-1.135","116","2022-3-31","14:58:50","0","18","[""Asian""]","No","Female","840152","","","","","","","","162","85","85","17","40","",""
"1407","5","rating","canvas-keyboard-response","283","522003","0.0-11.0-0.136","116","2022-3-31","14:58:50","0","18","[""Asian""]","No","Female","840152","","","","","","","","287","140","57","33","40","1",""
"null","null","clear_screen","canvas-keyboard-response","284","522262","0.0-11.0-1.136","116","2022-3-31","14:58:50","0","18","[""Asian""]","No","Female","840152","","","","","","","","287","140","57","33","40","",""
"1230","7","rating","canvas-keyboard-response","285","523507","0.0-11.0-0.137","116","2022-3-31","14:58:50","0","18","[""Asian""]","No","Female","840152","","","","","","","","114","30","140","17","17","1",""
"null","null","clear_screen","canvas-keyboard-response","286","523769","0.0-11.0-1.137","116","2022-3-31","14:58:50","0","18","[""Asian""]","No","Female","840152","","","","","","","","114","30","140","17","17","",""
"340","4","rating","canvas-keyboard-response","287","524123","0.0-11.0-0.138","116","2022-3-31","14:58:50","0","18","[""Asian""]","No","Female","840152","","","","","","","","291","30","57","40","40","1",""
"null","null","clear_screen","canvas-keyboard-response","288","524383","0.0-11.0-1.138","116","2022-3-31","14:58:50","0","18","[""Asian""]","No","Female","840152","","","","","","","","291","30","57","40","40","",""
"934","8","rating","canvas-keyboard-response","289","525331","0.0-11.0-0.139","116","2022-3-31","14:58:50","0","18","[""Asian""]","No","Female","840152","","","","","","","","64","85","140","10","33","0",""
"null","null","clear_screen","canvas-keyboard-response","290","525591","0.0-11.0-1.139","116","2022-3-31","14:58:50","0","18","[""Asian""]","No","Female","840152","","","","","","","","64","85","140","10","33","",""
"497","8","rating","canvas-keyboard-response","291","526099","0.0-11.0-0.140","116","2022-3-31","14:58:50","0","18","[""Asian""]","No","Female","840152","","","","","","","","121","30","57","17","33","1",""
"null","null","clear_screen","canvas-keyboard-response","292","526358","0.0-11.0-1.140","116","2022-3-31","14:58:50","0","18","[""Asian""]","No","Female","840152","","","","","","","","121","30","57","17","33","",""
"448","8","rating","canvas-keyboard-response","293","526820","0.0-11.0-0.141","116","2022-3-31","14:58:50","0","18","[""Asian""]","No","Female","840152","","","","","","","","108","140","85","10","40","0",""
"null","null","clear_screen","canvas-keyboard-response","294","527083","0.0-11.0-1.141","116","2022-3-31","14:58:50","0","18","[""Asian""]","No","Female","840152","","","","","","","","108","140","85","10","40","",""
"949","3","rating","canvas-keyboard-response","295","528043","0.0-11.0-0.142","116","2022-3-31","14:58:50","0","18","[""Asian""]","No","Female","840152","","","","","","","","256","30","57","33","33","1",""
"null","null","clear_screen","canvas-keyboard-response","296","528304","0.0-11.0-1.142","116","2022-3-31","14:58:50","0","18","[""Asian""]","No","Female","840152","","","","","","","","256","30","57","33","33","",""
"398","8","rating","canvas-keyboard-response","297","528716","0.0-11.0-0.143","116","2022-3-31","14:58:50","0","18","[""Asian""]","No","Female","840152","","","","","","","","245","113","140","25","40","0",""
"null","null","clear_screen","canvas-keyboard-response","298","528975","0.0-11.0-1.143","116","2022-3-31","14:58:50","0","18","[""Asian""]","No","Female","840152","","","","","","","","245","113","140","25","40","",""
"1425","8","rating","canvas-keyboard-response","299","530411","0.0-11.0-0.144","116","2022-3-31","14:58:50","0","18","[""Asian""]","No","Female","840152","","","","","","","","268","57","30","33","40","0",""
"null","null","clear_screen","canvas-keyboard-response","300","530669","0.0-11.0-1.144","116","2022-3-31","14:58:50","0","18","[""Asian""]","No","Female","840152","","","","","","","","268","57","30","33","40","",""
"786","3","rating","canvas-keyboard-response","301","531468","0.0-11.0-0.145","116","2022-3-31","14:58:50","0","18","[""Asian""]","No","Female","840152","","","","","","","","14","30","140","10","25","1",""
"null","null","clear_screen","canvas-keyboard-response","302","531727","0.0-11.0-1.145","116","2022-3-31","14:58:50","0","18","[""Asian""]","No","Female","840152","","","","","","","","14","30","140","10","25","",""
"1073","5","rating","canvas-keyboard-response","303","532812","0.0-11.0-0.146","116","2022-3-31","14:58:50","0","18","[""Asian""]","No","Female","840152","","","","","","","","136","57","113","17","25","0",""
"null","null","clear_screen","canvas-keyboard-response","304","533071","0.0-11.0-1.146","116","2022-3-31","14:58:50","0","18","[""Asian""]","No","Female","840152","","","","","","","","136","57","113","17","25","",""
"757","7","rating","canvas-keyboard-response","305","533843","0.0-11.0-0.147","116","2022-3-31","14:58:50","0","18","[""Asian""]","No","Female","840152","","","","","","","","235","113","140","25","25","0",""
"null","null","clear_screen","canvas-keyboard-response","306","534101","0.0-11.0-1.147","116","2022-3-31","14:58:50","0","18","[""Asian""]","No","Female","840152","","","","","","","","235","113","140","25","25","",""
"788","4","rating","canvas-keyboard-response","307","534897","0.0-11.0-0.148","116","2022-3-31","14:58:50","0","18","[""Asian""]","No","Female","840152","","","","","","","","211","57","113","25","25","0",""
"null","null","clear_screen","canvas-keyboard-response","308","535155","0.0-11.0-1.148","116","2022-3-31","14:58:50","0","18","[""Asian""]","No","Female","840152","","","","","","","","211","57","113","25","25","",""
"1348","9","rating","canvas-keyboard-response","309","536516","0.0-11.0-0.149","116","2022-3-31","14:58:50","0","18","[""Asian""]","No","Female","840152","","","","","","","","295","57","85","40","40","0",""
"null","null","clear_screen","canvas-keyboard-response","310","536773","0.0-11.0-1.149","116","2022-3-31","14:58:50","0","18","[""Asian""]","No","Female","840152","","","","","","","","295","57","85","40","40","",""
"1329","4","rating","canvas-keyboard-response","311","538116","0.0-11.0-0.150","116","2022-3-31","14:58:50","0","18","[""Asian""]","No","Female","840152","","","","","","","","166","113","30","17","25","0",""
"null","null","clear_screen","canvas-keyboard-response","312","538374","0.0-11.0-1.150","116","2022-3-31","14:58:50","0","18","[""Asian""]","No","Female","840152","","","","","","","","166","113","30","17","25","",""
"809","5","rating","canvas-keyboard-response","313","539196","0.0-11.0-0.151","116","2022-3-31","14:58:50","0","18","[""Asian""]","No","Female","840152","","","","","","","","262","30","85","33","40","1",""
"null","null","clear_screen","canvas-keyboard-response","314","539455","0.0-11.0-1.151","116","2022-3-31","14:58:50","0","18","[""Asian""]","No","Female","840152","","","","","","","","262","30","85","33","40","",""
"1810","8","rating","canvas-keyboard-response","315","541276","0.0-11.0-0.152","116","2022-3-31","14:58:50","0","18","[""Asian""]","No","Female","840152","","","","","","","","29","57","57","10","17","1",""
"null","null","clear_screen","canvas-keyboard-response","316","541535","0.0-11.0-1.152","116","2022-3-31","14:58:50","0","18","[""Asian""]","No","Female","840152","","","","","","","","29","57","57","10","17","",""
"1015","7","rating","canvas-keyboard-response","317","542563","0.0-11.0-0.153","116","2022-3-31","14:58:50","0","18","[""Asian""]","No","Female","840152","","","","","","","","55","85","30","10","25","0",""
"null","null","clear_screen","canvas-keyboard-response","318","542822","0.0-11.0-1.153","116","2022-3-31","14:58:50","0","18","[""Asian""]","No","Female","840152","","","","","","","","55","85","30","10","25","",""
"816","6","rating","canvas-keyboard-response","319","543651","0.0-11.0-0.154","116","2022-3-31","14:58:50","0","18","[""Asian""]","No","Female","840152","","","","","","","","118","30","113","17","25","1",""
"11","5","clear_screen","canvas-keyboard-response","320","543674","0.0-11.0-1.154","116","2022-3-31","14:58:50","0","18","[""Asian""]","No","Female","840152","","","","","","","","118","30","113","17","25","",""
"1170","7","rating","canvas-keyboard-response","321","544851","0.0-11.0-0.155","116","2022-3-31","14:58:50","0","18","[""Asian""]","No","Female","840152","","","","","","","","153","85","113","17","25","0",""
"null","null","clear_screen","canvas-keyboard-response","322","545111","0.0-11.0-1.155","116","2022-3-31","14:58:50","0","18","[""Asian""]","No","Female","840152","","","","","","","","153","85","113","17","25","",""
"631","5","rating","canvas-keyboard-response","323","545755","0.0-11.0-0.156","116","2022-3-31","14:58:50","0","18","[""Asian""]","No","Female","840152","","","","","","","","251","140","30","25","40","1",""
"null","null","clear_screen","canvas-keyboard-response","324","546017","0.0-11.0-1.156","116","2022-3-31","14:58:50","0","18","[""Asian""]","No","Female","840152","","","","","","","","251","140","30","25","40","",""
"1193","6","rating","canvas-keyboard-response","325","547219","0.0-11.0-0.157","116","2022-3-31","14:58:50","0","18","[""Asian""]","No","Female","840152","","","","","","","","145","57","85","17","40","1",""
"null","null","clear_screen","canvas-keyboard-response","326","547480","0.0-11.0-1.157","116","2022-3-31","14:58:50","0","18","[""Asian""]","No","Female","840152","","","","","","","","145","57","85","17","40","",""
"555","5","rating","canvas-keyboard-response","327","548051","0.0-11.0-0.158","116","2022-3-31","14:58:50","0","18","[""Asian""]","No","Female","840152","","","","","","","","83","113","85","10","33","1",""
"null","null","clear_screen","canvas-keyboard-response","328","548312","0.0-11.0-1.158","116","2022-3-31","14:58:50","0","18","[""Asian""]","No","Female","840152","","","","","","","","83","113","85","10","33","",""
"340","6","rating","canvas-keyboard-response","329","548667","0.0-11.0-0.159","116","2022-3-31","14:58:50","0","18","[""Asian""]","No","Female","840152","","","","","","","","89","113","113","10","40","0",""
"null","null","clear_screen","canvas-keyboard-response","330","548926","0.0-11.0-1.159","116","2022-3-31","14:58:50","0","18","[""Asian""]","No","Female","840152","","","","","","","","89","113","113","10","40","",""
"1102","5","rating","canvas-keyboard-response","331","550043","0.0-11.0-0.160","116","2022-3-31","14:58:50","0","18","[""Asian""]","No","Female","840152","","","","","","","","182","140","57","17","25","0",""
"null","null","clear_screen","canvas-keyboard-response","332","550305","0.0-11.0-1.160","116","2022-3-31","14:58:50","0","18","[""Asian""]","No","Female","840152","","","","","","","","182","140","57","17","25","",""
"4405","4","rating","canvas-keyboard-response","333","554723","0.0-11.0-0.161","116","2022-3-31","14:58:50","0","18","[""Asian""]","No","Female","840152","","","","","","","","138","57","30","17","33","1",""
"null","null","clear_screen","canvas-keyboard-response","334","554982","0.0-11.0-1.161","116","2022-3-31","14:58:50","0","18","[""Asian""]","No","Female","840152","","","","","","","","138","57","30","17","33","",""
"1468","8","rating","canvas-keyboard-response","335","556460","0.0-11.0-0.162","116","2022-3-31","14:58:50","0","18","[""Asian""]","No","Female","840152","","","","","","","","228","85","113","25","33","0",""
"null","null","clear_screen","canvas-keyboard-response","336","556717","0.0-11.0-1.162","116","2022-3-31","14:58:50","0","18","[""Asian""]","No","Female","840152","","","","","","","","228","85","113","25","33","",""
"1048","8","rating","canvas-keyboard-response","337","557772","0.0-11.0-0.163","116","2022-3-31","14:58:50","0","18","[""Asian""]","No","Female","840152","","","","","","","","189","140","113","17","33","0",""
"null","null","clear_screen","canvas-keyboard-response","338","558033","0.0-11.0-1.163","116","2022-3-31","14:58:50","0","18","[""Asian""]","No","Female","840152","","","","","","","","189","140","113","17","33","",""
"1062","5","rating","canvas-keyboard-response","339","559108","0.0-11.0-0.164","116","2022-3-31","14:58:50","0","18","[""Asian""]","No","Female","840152","","","","","","","","192","140","57","17","40","1",""
"null","null","clear_screen","canvas-keyboard-response","340","559367","0.0-11.0-1.164","116","2022-3-31","14:58:50","0","18","[""Asian""]","No","Female","840152","","","","","","","","192","140","57","17","40","",""
"999","7","rating","canvas-keyboard-response","341","560380","0.0-11.0-0.165","116","2022-3-31","14:58:50","0","18","[""Asian""]","No","Female","840152","","","","","","","","80","113","140","10","25","0",""
"null","null","clear_screen","canvas-keyboard-response","342","560641","0.0-11.0-1.165","116","2022-3-31","14:58:50","0","18","[""Asian""]","No","Female","840152","","","","","","","","80","113","140","10","25","",""
"565","5","rating","canvas-keyboard-response","343","561219","0.0-11.0-0.166","116","2022-3-31","14:58:50","0","18","[""Asian""]","No","Female","840152","","","","","","","","149","85","140","17","17","1",""
"null","null","clear_screen","canvas-keyboard-response","344","561479","0.0-11.0-1.166","116","2022-3-31","14:58:50","0","18","[""Asian""]","No","Female","840152","","","","","","","","149","85","140","17","17","",""
"1089","7","rating","canvas-keyboard-response","345","562580","0.0-11.0-0.167","116","2022-3-31","14:58:50","0","18","[""Asian""]","No","Female","840152","","","","","","","","142","57","140","17","33","0",""
"null","null","clear_screen","canvas-keyboard-response","346","562842","0.0-11.0-1.167","116","2022-3-31","14:58:50","0","18","[""Asian""]","No","Female","840152","","","","","","","","142","57","140","17","33","",""
"1078","3","rating","canvas-keyboard-response","347","563933","0.0-11.0-0.168","116","2022-3-31","14:58:50","0","18","[""Asian""]","No","Female","840152","","","","","","","","225","85","30","25","33","1",""
"null","null","clear_screen","canvas-keyboard-response","348","564193","0.0-11.0-1.168","116","2022-3-31","14:58:50","0","18","[""Asian""]","No","Female","840152","","","","","","","","225","85","30","25","33","",""
"739","3","rating","canvas-keyboard-response","349","564947","0.0-11.0-0.169","116","2022-3-31","14:58:50","0","18","[""Asian""]","No","Female","840152","","","","","","","","47","57","140","10","40","1",""
"null","null","clear_screen","canvas-keyboard-response","350","565210","0.0-11.0-1.169","116","2022-3-31","14:58:50","0","18","[""Asian""]","No","Female","840152","","","","","","","","47","57","140","10","40","",""
"878","8","rating","canvas-keyboard-response","351","566099","0.0-11.0-0.170","116","2022-3-31","14:58:50","0","18","[""Asian""]","No","Female","840152","","","","","","","","194","140","113","17","40","1",""
"null","null","clear_screen","canvas-keyboard-response","352","566363","0.0-11.0-1.170","116","2022-3-31","14:58:50","0","18","[""Asian""]","No","Female","840152","","","","","","","","194","140","113","17","40","",""
"1628","4","rating","canvas-keyboard-response","353","568003","0.0-11.0-0.171","116","2022-3-31","14:58:50","0","18","[""Asian""]","No","Female","840152","","","","","","","","37","57","140","10","25","1",""
"null","null","clear_screen","canvas-keyboard-response","354","568262","0.0-11.0-1.171","116","2022-3-31","14:58:50","0","18","[""Asian""]","No","Female","840152","","","","","","","","37","57","140","10","25","",""
"1320","4","rating","canvas-keyboard-response","355","569595","0.0-11.0-0.172","116","2022-3-31","14:58:50","0","18","[""Asian""]","No","Female","840152","","","","","","","","67","85","85","10","40","1",""
"null","null","clear_screen","canvas-keyboard-response","356","569855","0.0-11.0-1.172","116","2022-3-31","14:58:50","0","18","[""Asian""]","No","Female","840152","","","","","","","","67","85","85","10","40","",""
"700","5","rating","canvas-keyboard-response","357","570572","0.0-11.0-0.173","116","2022-3-31","14:58:50","0","18","[""Asian""]","No","Female","840152","","","","","","","","49","85","140","10","10","1",""
"null","null","clear_screen","canvas-keyboard-response","358","570833","0.0-11.0-1.173","116","2022-3-31","14:58:50","0","18","[""Asian""]","No","Female","840152","","","","","","","","49","85","140","10","10","",""
"700","5","rating","canvas-keyboard-response","359","571548","0.0-11.0-0.174","116","2022-3-31","14:58:50","0","18","[""Asian""]","No","Female","840152","","","","","","","","17","30","85","10","33","1",""
"null","null","clear_screen","canvas-keyboard-response","360","571809","0.0-11.0-1.174","116","2022-3-31","14:58:50","0","18","[""Asian""]","No","Female","840152","","","","","","","","17","30","85","10","33","",""
"971","7","rating","canvas-keyboard-response","361","572794","0.0-11.0-0.175","116","2022-3-31","14:58:50","0","18","[""Asian""]","No","Female","840152","","","","","","","","293","30","113","40","40","0",""
"null","null","clear_screen","canvas-keyboard-response","362","573055","0.0-11.0-1.175","116","2022-3-31","14:58:50","0","18","[""Asian""]","No","Female","840152","","","","","","","","293","30","113","40","40","",""
"551","7","rating","canvas-keyboard-response","363","573620","0.0-11.0-0.176","116","2022-3-31","14:58:50","0","18","[""Asian""]","No","Female","840152","","","","","","","","270","57","85","33","40","0",""
"null","null","clear_screen","canvas-keyboard-response","364","573878","0.0-11.0-1.176","116","2022-3-31","14:58:50","0","18","[""Asian""]","No","Female","840152","","","","","","","","270","57","85","33","40","",""
"1107","8","rating","canvas-keyboard-response","365","574996","0.0-11.0-0.177","116","2022-3-31","14:58:50","0","18","[""Asian""]","No","Female","840152","","","","","","","","278","85","113","33","40","1",""
"null","null","clear_screen","canvas-keyboard-response","366","575257","0.0-11.0-1.177","116","2022-3-31","14:58:50","0","18","[""Asian""]","No","Female","840152","","","","","","","","278","85","113","33","40","",""
"1374","5","rating","canvas-keyboard-response","367","576643","0.0-11.0-0.178","116","2022-3-31","14:58:50","0","18","[""Asian""]","No","Female","840152","","","","","","","","86","113","30","10","40","0",""
"null","null","clear_screen","canvas-keyboard-response","368","576905","0.0-11.0-1.178","116","2022-3-31","14:58:50","0","18","[""Asian""]","No","Female","840152","","","","","","","","86","113","30","10","40","",""
"1170","6","rating","canvas-keyboard-response","369","578083","0.0-11.0-0.179","116","2022-3-31","14:58:50","0","18","[""Asian""]","No","Female","840152","","","","","","","","275","85","30","33","40","0",""
"null","null","clear_screen","canvas-keyboard-response","370","578344","0.0-11.0-1.179","116","2022-3-31","14:58:50","0","18","[""Asian""]","No","Female","840152","","","","","","","","275","85","30","33","40","",""
"1937","3","rating","canvas-keyboard-response","371","580291","0.0-11.0-0.180","116","2022-3-31","14:58:50","0","18","[""Asian""]","No","Female","840152","","","","","","","","191","140","30","17","40","0",""
"null","null","clear_screen","canvas-keyboard-response","372","580549","0.0-11.0-1.180","116","2022-3-31","14:58:50","0","18","[""Asian""]","No","Female","840152","","","","","","","","191","140","30","17","40","",""
"915","2","rating","canvas-keyboard-response","373","581475","0.0-11.0-0.181","116","2022-3-31","14:58:50","0","18","[""Asian""]","No","Female","840152","","","","","","","","198","30","113","25","25","0",""
"null","null","clear_screen","canvas-keyboard-response","374","581734","0.0-11.0-1.181","116","2022-3-31","14:58:50","0","18","[""Asian""]","No","Female","840152","","","","","","","","198","30","113","25","25","",""
"418","3","rating","canvas-keyboard-response","375","582163","0.0-11.0-0.182","116","2022-3-31","14:58:50","0","18","[""Asian""]","No","Female","840152","","","","","","","","180","113","140","17","40","1",""
"null","null","clear_screen","canvas-keyboard-response","376","582422","0.0-11.0-1.182","116","2022-3-31","14:58:50","0","18","[""Asian""]","No","Female","840152","","","","","","","","180","113","140","17","40","",""
"1063","7","rating","canvas-keyboard-response","377","583499","0.0-11.0-0.183","116","2022-3-31","14:58:50","0","18","[""Asian""]","No","Female","840152","","","","","","","","193","140","85","17","40","0",""
"null","null","clear_screen","canvas-keyboard-response","378","583761","0.0-11.0-1.183","116","2022-3-31","14:58:50","0","18","[""Asian""]","No","Female","840152","","","","","","","","193","140","85","17","40","",""
"533","4","rating","canvas-keyboard-response","379","584307","0.0-11.0-0.184","116","2022-3-31","14:58:50","0","18","[""Asian""]","No","Female","840152","","","","","","","","87","113","57","10","40","1",""
"null","null","clear_screen","canvas-keyboard-response","380","584569","0.0-11.0-1.184","116","2022-3-31","14:58:50","0","18","[""Asian""]","No","Female","840152","","","","","","","","87","113","57","10","40","",""
"535","3","rating","canvas-keyboard-response","381","585115","0.0-11.0-0.185","116","2022-3-31","14:58:50","0","18","[""Asian""]","No","Female","840152","","","","","","","","164","85","140","17","40","0",""
"null","null","clear_screen","canvas-keyboard-response","382","585377","0.0-11.0-1.185","116","2022-3-31","14:58:50","0","18","[""Asian""]","No","Female","840152","","","","","","","","164","85","140","17","40","",""
"465","3","rating","canvas-keyboard-response","383","585851","0.0-11.0-0.186","116","2022-3-31","14:58:50","0","18","[""Asian""]","No","Female","840152","","","","","","","","178","113","85","17","40","0",""
"null","null","clear_screen","canvas-keyboard-response","384","586109","0.0-11.0-1.186","116","2022-3-31","14:58:50","0","18","[""Asian""]","No","Female","840152","","","","","","","","178","113","85","17","40","",""
"426","3","rating","canvas-keyboard-response","385","586547","0.0-11.0-0.187","116","2022-3-31","14:58:50","0","18","[""Asian""]","No","Female","840152","","","","","","","","227","85","85","25","33","1",""
"null","null","clear_screen","canvas-keyboard-response","386","586805","0.0-11.0-1.187","116","2022-3-31","14:58:50","0","18","[""Asian""]","No","Female","840152","","","","","","","","227","85","85","25","33","",""
"1170","8","rating","canvas-keyboard-response","387","587986","0.0-11.0-0.188","116","2022-3-31","14:58:50","0","18","[""Asian""]","No","Female","840152","","","","","","","","111","30","57","17","17","0",""
"null","null","clear_screen","canvas-keyboard-response","388","588246","0.0-11.0-1.188","116","2022-3-31","14:58:50","0","18","[""Asian""]","No","Female","840152","","","","","","","","111","30","57","17","17","",""
"1060","5","rating","canvas-keyboard-response","389","589323","0.0-11.0-0.189","116","2022-3-31","14:58:50","0","18","[""Asian""]","No","Female","840152","","","","","","","","222","57","140","25","40","0",""
"null","null","clear_screen","canvas-keyboard-response","390","589583","0.0-11.0-1.189","116","2022-3-31","14:58:50","0","18","[""Asian""]","No","Female","840152","","","","","","","","222","57","140","25","40","",""
"578","4","rating","canvas-keyboard-response","391","590171","0.0-11.0-0.190","116","2022-3-31","14:58:50","0","18","[""Asian""]","No","Female","840152","","","","","","","","272","57","140","33","40","1",""
"null","null","clear_screen","canvas-keyboard-response","392","590431","0.0-11.0-1.190","116","2022-3-31","14:58:50","0","18","[""Asian""]","No","Female","840152","","","","","","","","272","57","140","33","40","",""
"1449","8","rating","canvas-keyboard-response","393","591891","0.0-11.0-0.191","116","2022-3-31","14:58:50","0","18","[""Asian""]","No","Female","840152","","","","","","","","79","113","113","10","25","0",""
"null","null","clear_screen","canvas-keyboard-response","394","592153","0.0-11.0-1.191","116","2022-3-31","14:58:50","0","18","[""Asian""]","No","Female","840152","","","","","","","","79","113","113","10","25","",""
"1174","8","rating","canvas-keyboard-response","395","593339","0.0-11.0-0.192","116","2022-3-31","14:58:50","0","18","[""Asian""]","No","Female","840152","","","","","","","","261","30","57","33","40","0",""
"null","null","clear_screen","canvas-keyboard-response","396","593598","0.0-11.0-1.192","116","2022-3-31","14:58:50","0","18","[""Asian""]","No","Female","840152","","","","","","","","261","30","57","33","40","",""
"1082","7","rating","canvas-keyboard-response","397","594691","0.0-11.0-0.193","116","2022-3-31","14:58:50","0","18","[""Asian""]","No","Female","840152","","","","","","","","90","113","140","10","40","0",""
"null","null","clear_screen","canvas-keyboard-response","398","594950","0.0-11.0-1.193","116","2022-3-31","14:58:50","0","18","[""Asian""]","No","Female","840152","","","","","","","","90","113","140","10","40","",""
"1090","4","rating","canvas-keyboard-response","399","596052","0.0-11.0-0.194","116","2022-3-31","14:58:50","0","18","[""Asian""]","No","Female","840152","","","","","","","","199","30","140","25","25","1",""
"null","null","clear_screen","canvas-keyboard-response","400","596313","0.0-11.0-1.194","116","2022-3-31","14:58:50","0","18","[""Asian""]","No","Female","840152","","","","","","","","199","30","140","25","25","",""
"774","5","rating","canvas-keyboard-response","401","597100","0.0-11.0-0.195","116","2022-3-31","14:58:50","0","18","[""Asian""]","No","Female","840152","","","","","","","","288","140","85","33","40","0",""
"null","null","clear_screen","canvas-keyboard-response","402","597358","0.0-11.0-1.195","116","2022-3-31","14:58:50","0","18","[""Asian""]","No","Female","840152","","","","","","","","288","140","85","33","40","",""
"1295","9","rating","canvas-keyboard-response","403","598668","0.0-11.0-0.196","116","2022-3-31","14:58:50","0","18","[""Asian""]","No","Female","840152","","","","","","","","5","30","30","10","17","1",""
"null","null","clear_screen","canvas-keyboard-response","404","598929","0.0-11.0-1.196","116","2022-3-31","14:58:50","0","18","[""Asian""]","No","Female","840152","","","","","","","","5","30","30","10","17","",""
"1279","8","rating","canvas-keyboard-response","405","600220","0.0-11.0-0.197","116","2022-3-31","14:58:50","0","18","[""Asian""]","No","Female","840152","","","","","","","","273","85","113","33","33","1",""
"null","null","clear_screen","canvas-keyboard-response","406","600479","0.0-11.0-1.197","116","2022-3-31","14:58:50","0","18","[""Asian""]","No","Female","840152","","","","","","","","273","85","113","33","33","",""
"987","9","rating","canvas-keyboard-response","407","601484","0.0-11.0-0.198","116","2022-3-31","14:58:50","0","18","[""Asian""]","No","Female","840152","","","","","","","","277","85","85","33","40","0",""
"null","null","clear_screen","canvas-keyboard-response","408","601747","0.0-11.0-1.198","116","2022-3-31","14:58:50","0","18","[""Asian""]","No","Female","840152","","","","","","","","277","85","85","33","40","",""
"2228","8","rating","canvas-keyboard-response","409","603988","0.0-11.0-0.199","116","2022-3-31","14:58:50","0","18","[""Asian""]","No","Female","840152","","","","","","","","250","140","140","25","33","1",""
"null","null","clear_screen","canvas-keyboard-response","410","604249","0.0-11.0-1.199","116","2022-3-31","14:58:50","0","18","[""Asian""]","No","Female","840152","","","","","","","","250","140","140","25","33","",""
"1149","7","rating","canvas-keyboard-response","411","605411","0.0-11.0-0.200","116","2022-3-31","14:58:50","0","18","[""Asian""]","No","Female","840152","","","","","","","","73","113","85","10","17","1",""
"null","null","clear_screen","canvas-keyboard-response","412","605671","0.0-11.0-1.200","116","2022-3-31","14:58:50","0","18","[""Asian""]","No","Female","840152","","","","","","","","73","113","85","10","17","",""
"1082","4","rating","canvas-keyboard-response","413","606770","0.0-11.0-0.201","116","2022-3-31","14:58:50","0","18","[""Asian""]","No","Female","840152","","","","","","","","40","57","85","10","33","1",""
"null","null","clear_screen","canvas-keyboard-response","414","607030","0.0-11.0-1.201","116","2022-3-31","14:58:50","0","18","[""Asian""]","No","Female","840152","","","","","","","","40","57","85","10","33","",""
"1439","7","rating","canvas-keyboard-response","415","608483","0.0-11.0-0.202","116","2022-3-31","14:58:50","0","18","[""Asian""]","No","Female","840152","","","","","","","","280","113","140","33","33","1",""
"null","null","clear_screen","canvas-keyboard-response","416","608745","0.0-11.0-1.202","116","2022-3-31","14:58:50","0","18","[""Asian""]","No","Female","840152","","","","","","","","280","113","140","33","33","",""
"919","3","rating","canvas-keyboard-response","417","609675","0.0-11.0-0.203","116","2022-3-31","14:58:50","0","18","[""Asian""]","No","Female","840152","","","","","","","","112","30","85","17","17","1",""
"null","null","clear_screen","canvas-keyboard-response","418","609934","0.0-11.0-1.203","116","2022-3-31","14:58:50","0","18","[""Asian""]","No","Female","840152","","","","","","","","112","30","85","17","17","",""
"1188","4","rating","canvas-keyboard-response","419","611132","0.0-11.0-0.204","116","2022-3-31","14:58:50","0","18","[""Asian""]","No","Female","840152","","","","","","","","154","85","140","17","25","1",""
"null","null","clear_screen","canvas-keyboard-response","420","611393","0.0-11.0-1.204","116","2022-3-31","14:58:50","0","18","[""Asian""]","No","Female","840152","","","","","","","","154","85","140","17","25","",""
"1291","7","rating","canvas-keyboard-response","421","612698","0.0-11.0-0.205","116","2022-3-31","14:58:50","0","18","[""Asian""]","No","Female","840152","","","","","","","","157","85","85","17","33","1",""
"null","null","clear_screen","canvas-keyboard-response","422","612959","0.0-11.0-1.205","116","2022-3-31","14:58:50","0","18","[""Asian""]","No","Female","840152","","","","","","","","157","85","85","17","33","",""
"1151","7","rating","canvas-keyboard-response","423","614123","0.0-11.0-0.206","116","2022-3-31","14:58:50","0","18","[""Asian""]","No","Female","840152","","","","","","","","297","57","140","40","40","1",""
"null","null","clear_screen","canvas-keyboard-response","424","614385","0.0-11.0-1.206","116","2022-3-31","14:58:50","0","18","[""Asian""]","No","Female","840152","","","","","","","","297","57","140","40","40","",""
"1601","5","rating","canvas-keyboard-response","425","615995","0.0-11.0-0.207","116","2022-3-31","14:58:50","0","18","[""Asian""]","No","Female","840152","","","","","","","","207","30","85","25","40","0",""
"null","null","clear_screen","canvas-keyboard-response","426","616258","0.0-11.0-1.207","116","2022-3-31","14:58:50","0","18","[""Asian""]","No","Female","840152","","","","","","","","207","30","85","25","40","",""
"895","3","rating","canvas-keyboard-response","427","617164","0.0-11.0-0.208","116","2022-3-31","14:58:50","0","18","[""Asian""]","No","Female","840152","","","","","","","","168","113","85","17","25","1",""
"null","null","clear_screen","canvas-keyboard-response","428","617422","0.0-11.0-1.208","116","2022-3-31","14:58:50","0","18","[""Asian""]","No","Female","840152","","","","","","","","168","113","85","17","25","",""
"1818","3","rating","canvas-keyboard-response","429","619251","0.0-11.0-0.209","116","2022-3-31","14:58:50","0","18","[""Asian""]","No","Female","840152","","","","","","","","186","140","30","17","33","0",""
"null","null","clear_screen","canvas-keyboard-response","430","619509","0.0-11.0-1.209","116","2022-3-31","14:58:50","0","18","[""Asian""]","No","Female","840152","","","","","","","","186","140","30","17","33","",""
"2331","3","rating","canvas-keyboard-response","431","621851","0.0-11.0-0.210","116","2022-3-31","14:58:50","0","18","[""Asian""]","No","Female","840152","","","","","","","","6","30","57","10","17","1",""
"null","null","clear_screen","canvas-keyboard-response","432","622114","0.0-11.0-1.210","116","2022-3-31","14:58:50","0","18","[""Asian""]","No","Female","840152","","","","","","","","6","30","57","10","17","",""
"972","5","rating","canvas-keyboard-response","433","623100","0.0-11.0-0.211","116","2022-3-31","14:58:50","0","18","[""Asian""]","No","Female","840152","","","","","","","","252","140","57","25","40","1",""
"null","null","clear_screen","canvas-keyboard-response","434","623358","0.0-11.0-1.211","116","2022-3-31","14:58:50","0","18","[""Asian""]","No","Female","840152","","","","","","","","252","140","57","25","40","",""
"842","6","rating","canvas-keyboard-response","435","624211","0.0-11.0-0.212","116","2022-3-31","14:58:50","0","18","[""Asian""]","No","Female","840152","","","","","","","","218","57","30","25","40","1",""
"null","null","clear_screen","canvas-keyboard-response","436","624469","0.0-11.0-1.212","116","2022-3-31","14:58:50","0","18","[""Asian""]","No","Female","840152","","","","","","","","218","57","30","25","40","",""
"1004","5","rating","canvas-keyboard-response","437","625483","0.0-11.0-0.213","116","2022-3-31","14:58:50","0","18","[""Asian""]","No","Female","840152","","","","","","","","279","85","140","33","40","0",""
"null","null","clear_screen","canvas-keyboard-response","438","625746","0.0-11.0-1.213","116","2022-3-31","14:58:50","0","18","[""Asian""]","No","Female","840152","","","","","","","","279","85","140","33","40","",""
"471","4","rating","canvas-keyboard-response","439","626227","0.0-11.0-0.214","116","2022-3-31","14:58:50","0","18","[""Asian""]","No","Female","840152","","","","","","","","71","113","30","10","17","1",""
"null","null","clear_screen","canvas-keyboard-response","440","626485","0.0-11.0-1.214","116","2022-3-31","14:58:50","0","18","[""Asian""]","No","Female","840152","","","","","","","","71","113","30","10","17","",""
"347","5","rating","canvas-keyboard-response","441","626843","0.0-11.0-0.215","116","2022-3-31","14:58:50","0","18","[""Asian""]","No","Female","840152","","","","","","","","219","57","57","25","40","0",""
"null","null","clear_screen","canvas-keyboard-response","442","627103","0.0-11.0-1.215","116","2022-3-31","14:58:50","0","18","[""Asian""]","No","Female","840152","","","","","","","","219","57","57","25","40","",""
"1366","7","rating","canvas-keyboard-response","443","628483","0.0-11.0-0.216","116","2022-3-31","14:58:50","0","18","[""Asian""]","No","Female","840152","","","","","","","","253","140","85","25","40","0",""
"null","null","clear_screen","canvas-keyboard-response","444","628746","0.0-11.0-1.216","116","2022-3-31","14:58:50","0","18","[""Asian""]","No","Female","840152","","","","","","","","253","140","85","25","40","",""
"934","4","rating","canvas-keyboard-response","445","629690","0.0-11.0-0.217","116","2022-3-31","14:58:50","0","18","[""Asian""]","No","Female","840152","","","","","","","","236","113","30","25","33","1",""
"null","null","clear_screen","canvas-keyboard-response","446","629946","0.0-11.0-1.217","116","2022-3-31","14:58:50","0","18","[""Asian""]","No","Female","840152","","","","","","","","236","113","30","25","33","",""
"505","4","rating","canvas-keyboard-response","447","630467","0.0-11.0-0.218","116","2022-3-31","14:58:50","0","18","[""Asian""]","No","Female","840152","","","","","","","","81","113","30","10","33","1",""
"null","null","clear_screen","canvas-keyboard-response","448","630729","0.0-11.0-1.218","116","2022-3-31","14:58:50","0","18","[""Asian""]","No","Female","840152","","","","","","","","81","113","30","10","33","",""
"274","5","rating","canvas-keyboard-response","449","631018","0.0-11.0-0.219","116","2022-3-31","14:58:50","0","18","[""Asian""]","No","Female","840152","","","","","","","","57","85","85","10","25","0",""
"null","null","clear_screen","canvas-keyboard-response","450","631277","0.0-11.0-1.219","116","2022-3-31","14:58:50","0","18","[""Asian""]","No","Female","840152","","","","","","","","57","85","85","10","25","",""
"687","3","rating","canvas-keyboard-response","451","631979","0.0-11.0-0.220","116","2022-3-31","14:58:50","0","18","[""Asian""]","No","Female","840152","","","","","","","","248","140","85","25","33","1",""
"null","null","clear_screen","canvas-keyboard-response","452","632237","0.0-11.0-1.220","116","2022-3-31","14:58:50","0","18","[""Asian""]","No","Female","840152","","","","","","","","248","140","85","25","33","",""
"652","5","rating","canvas-keyboard-response","453","632898","0.0-11.0-0.221","116","2022-3-31","14:58:50","0","18","[""Asian""]","No","Female","840152","","","","","","","","147","57","140","17","40","0",""
"null","null","clear_screen","canvas-keyboard-response","454","633159","0.0-11.0-1.221","116","2022-3-31","14:58:50","0","18","[""Asian""]","No","Female","840152","","","","","","","","147","57","140","17","40","",""
"1302","7","rating","canvas-keyboard-response","455","634475","0.0-11.0-0.222","116","2022-3-31","14:58:50","0","18","[""Asian""]","No","Female","840152","","","","","","","","244","113","113","25","40","1",""
"null","null","clear_screen","canvas-keyboard-response","456","634734","0.0-11.0-1.222","116","2022-3-31","14:58:50","0","18","[""Asian""]","No","Female","840152","","","","","","","","244","113","113","25","40","",""
"544","3","rating","canvas-keyboard-response","457","635292","0.0-11.0-0.223","116","2022-3-31","14:58:50","0","18","[""Asian""]","No","Female","840152","","","","","","","","132","57","140","17","17","0",""
"null","null","clear_screen","canvas-keyboard-response","458","635553","0.0-11.0-1.223","116","2022-3-31","14:58:50","0","18","[""Asian""]","No","Female","840152","","","","","","","","132","57","140","17","17","",""
"975","5","rating","canvas-keyboard-response","459","636540","0.0-11.0-0.224","116","2022-3-31","14:58:50","0","18","[""Asian""]","No","Female","840152","","","","","","","","171","113","30","17","33","1",""
"null","null","clear_screen","canvas-keyboard-response","460","636802","0.0-11.0-1.224","116","2022-3-31","14:58:50","0","18","[""Asian""]","No","Female","840152","","","","","","","","171","113","30","17","33","",""
"1148","7","rating","canvas-keyboard-response","461","637963","0.0-11.0-0.225","116","2022-3-31","14:58:50","0","18","[""Asian""]","No","Female","840152","","","","","","","","240","113","140","25","33","1",""
"null","null","clear_screen","canvas-keyboard-response","462","638224","0.0-11.0-1.225","116","2022-3-31","14:58:50","0","18","[""Asian""]","No","Female","840152","","","","","","","","240","113","140","25","33","",""
"734","3","rating","canvas-keyboard-response","463","638972","0.0-11.0-0.226","116","2022-3-31","14:58:50","0","18","[""Asian""]","No","Female","840152","","","","","","","","56","85","57","10","25","1",""
"null","null","clear_screen","canvas-keyboard-response","464","639231","0.0-11.0-1.226","116","2022-3-31","14:58:50","0","18","[""Asian""]","No","Female","840152","","","","","","","","56","85","57","10","25","",""
"905","4","rating","canvas-keyboard-response","465","640148","0.0-11.0-0.227","116","2022-3-31","14:58:50","0","18","[""Asian""]","No","Female","840152","","","","","","","","66","85","57","10","40","0",""
