"rt","response","trialType","trial_type","trial_index","time_elapsed","internal_node_id","sub_n","date","time","leftRight","age","race","ethnicity","gender","exp_duration","success","timeout","failed_images","failed_audio","failed_video","stimulus","view_history","trialID","radius_a","radius_b","angle_a","angle_b","lrCond","question_order"
"7034","{""response"":""119""}","enter-sub-number","survey-html-form","0","7063","0.0-0.0","119","2022-4-7","9:24:8","0","19","[""Asian""]","No","Female","781898","","","","","","","","","","","","","",""
"","","","fullscreen","1","9786","0.0-1.0","119","2022-4-7","9:24:8","0","19","[""Asian""]","No","Female","781898","true","","","","","","","","","","","","",""
"","","","preload","2","9809","0.0-2.0","119","2022-4-7","9:24:8","0","19","[""Asian""]","No","Female","781898","true","false","[]","[]","[]","","","","","","","","",""
"62359","0","","html-button-response","3","72170","0.0-3.0","119","2022-4-7","9:24:8","0","19","[""Asian""]","No","Female","781898","","","","","","<div style= ""font-size:25px;"" <p> <strong> Welcome to the experiment! </strong><br> <p style=""color:#8B0000; font-size:25px;""><strong> Please do NOT exit full screen until you are done with the experiment. </strong> </p><p style=""font-size:25px;color:#8B0000;""> <strong> The experiment will be canceled and your data will be lost <br> if you try to go back or refresh the page at any point during the experiment.</strong> </p><br><p> <strong> Thanks in advance for your contribution to our research! </strong></p>","","","","","","","",""
"49028","","","instructions","4","121201","0.0-4.0","119","2022-4-7","9:24:8","0","19","[""Asian""]","No","Female","781898","","","","","","","[{""page_index"":0,""viewing_time"":26323},{""page_index"":1,""viewing_time"":15329},{""page_index"":2,""viewing_time"":7376}]","","","","","","",""
"null","null","presentPop","canvas-keyboard-response","5","137217","0.0-5.0","119","2022-4-7","9:24:8","0","19","[""Asian""]","No","Female","781898","","","","","","","","","","","","","",""
"null","null","clear_screen","canvas-keyboard-response","6","137977","0.0-6.0","119","2022-4-7","9:24:8","0","19","[""Asian""]","No","Female","781898","","","","","","","","","","","","","",""
"7045","","","instructions","7","145024","0.0-7.0","119","2022-4-7","9:24:8","0","19","[""Asian""]","No","Female","781898","","","","","","","[{""page_index"":0,""viewing_time"":7045}]","","","","","","",""
"null","null","presentPop","canvas-keyboard-response","8","161039","0.0-8.0","119","2022-4-7","9:24:8","0","19","[""Asian""]","No","Female","781898","","","","","","","","","","","","","",""
"null","null","clear_screen","canvas-keyboard-response","9","161798","0.0-9.0","119","2022-4-7","9:24:8","0","19","[""Asian""]","No","Female","781898","","","","","","","","","","","","","",""
"18704","","","instructions","10","180504","0.0-10.0","119","2022-4-7","9:24:8","0","19","[""Asian""]","No","Female","781898","","","","","","","[{""page_index"":0,""viewing_time"":5424},{""page_index"":1,""viewing_time"":13279}]","","","","","","",""
"5167","7","rating","canvas-keyboard-response","11","186686","0.0-11.0-0.0","119","2022-4-7","9:24:8","0","19","[""Asian""]","No","Female","781898","","","","","","","","4","30","140","10","10","1",""
"null","null","clear_screen","canvas-keyboard-response","12","186946","0.0-11.0-1.0","119","2022-4-7","9:24:8","0","19","[""Asian""]","No","Female","781898","","","","","","","","4","30","140","10","10","",""
"1911","5","rating","canvas-keyboard-response","13","188869","0.0-11.0-0.1","119","2022-4-7","9:24:8","0","19","[""Asian""]","No","Female","781898","","","","","","","","253","140","85","25","40","1",""
"null","null","clear_screen","canvas-keyboard-response","14","189129","0.0-11.0-1.1","119","2022-4-7","9:24:8","0","19","[""Asian""]","No","Female","781898","","","","","","","","253","140","85","25","40","",""
"4326","8","rating","canvas-keyboard-response","15","193469","0.0-11.0-0.2","119","2022-4-7","9:24:8","0","19","[""Asian""]","No","Female","781898","","","","","","","","256","30","57","33","33","0",""
"null","null","clear_screen","canvas-keyboard-response","16","193730","0.0-11.0-1.2","119","2022-4-7","9:24:8","0","19","[""Asian""]","No","Female","781898","","","","","","","","256","30","57","33","33","",""
"1865","3","rating","canvas-keyboard-response","17","195607","0.0-11.0-0.3","119","2022-4-7","9:24:8","0","19","[""Asian""]","No","Female","781898","","","","","","","","189","140","113","17","33","0",""
"null","null","clear_screen","canvas-keyboard-response","18","195865","0.0-11.0-1.3","119","2022-4-7","9:24:8","0","19","[""Asian""]","No","Female","781898","","","","","","","","189","140","113","17","33","",""
"2914","6","rating","canvas-keyboard-response","19","198790","0.0-11.0-0.4","119","2022-4-7","9:24:8","0","19","[""Asian""]","No","Female","781898","","","","","","","","288","140","85","33","40","1",""
"null","null","clear_screen","canvas-keyboard-response","20","199049","0.0-11.0-1.4","119","2022-4-7","9:24:8","0","19","[""Asian""]","No","Female","781898","","","","","","","","288","140","85","33","40","",""
"2408","5","rating","canvas-keyboard-response","21","201469","0.0-11.0-0.5","119","2022-4-7","9:24:8","0","19","[""Asian""]","No","Female","781898","","","","","","","","49","85","140","10","10","0",""
"null","null","clear_screen","canvas-keyboard-response","22","201729","0.0-11.0-1.5","119","2022-4-7","9:24:8","0","19","[""Asian""]","No","Female","781898","","","","","","","","49","85","140","10","10","",""
"1657","1","rating","canvas-keyboard-response","23","203397","0.0-11.0-0.6","119","2022-4-7","9:24:8","0","19","[""Asian""]","No","Female","781898","","","","","","","","110","140","140","10","40","1",""
"null","null","clear_screen","canvas-keyboard-response","24","203656","0.0-11.0-1.6","119","2022-4-7","9:24:8","0","19","[""Asian""]","No","Female","781898","","","","","","","","110","140","140","10","40","",""
"1050","1","rating","canvas-keyboard-response","25","204717","0.0-11.0-0.7","119","2022-4-7","9:24:8","0","19","[""Asian""]","No","Female","781898","","","","","","","","59","85","140","10","25","1",""
"null","null","clear_screen","canvas-keyboard-response","26","204981","0.0-11.0-1.7","119","2022-4-7","9:24:8","0","19","[""Asian""]","No","Female","781898","","","","","","","","59","85","140","10","25","",""
"2676","6","rating","canvas-keyboard-response","27","207669","0.0-11.0-0.8","119","2022-4-7","9:24:8","0","19","[""Asian""]","No","Female","781898","","","","","","","","229","85","140","25","33","0",""
"null","null","clear_screen","canvas-keyboard-response","28","207928","0.0-11.0-1.8","119","2022-4-7","9:24:8","0","19","[""Asian""]","No","Female","781898","","","","","","","","229","85","140","25","33","",""
"1986","8","rating","canvas-keyboard-response","29","209925","0.0-11.0-0.9","119","2022-4-7","9:24:8","0","19","[""Asian""]","No","Female","781898","","","","","","","","295","57","85","40","40","1",""
"null","null","clear_screen","canvas-keyboard-response","30","210186","0.0-11.0-1.9","119","2022-4-7","9:24:8","0","19","[""Asian""]","No","Female","781898","","","","","","","","295","57","85","40","40","",""
"2719","7","rating","canvas-keyboard-response","31","212918","0.0-11.0-0.10","119","2022-4-7","9:24:8","0","19","[""Asian""]","No","Female","781898","","","","","","","","196","30","57","25","25","0",""
"null","null","clear_screen","canvas-keyboard-response","32","213177","0.0-11.0-1.10","119","2022-4-7","9:24:8","0","19","[""Asian""]","No","Female","781898","","","","","","","","196","30","57","25","25","",""
"2138","1","rating","canvas-keyboard-response","33","215324","0.0-11.0-0.11","119","2022-4-7","9:24:8","0","19","[""Asian""]","No","Female","781898","","","","","","","","99","140","113","10","25","0",""
"null","null","clear_screen","canvas-keyboard-response","34","215585","0.0-11.0-1.11","119","2022-4-7","9:24:8","0","19","[""Asian""]","No","Female","781898","","","","","","","","99","140","113","10","25","",""
"1666","3","rating","canvas-keyboard-response","35","217261","0.0-11.0-0.12","119","2022-4-7","9:24:8","0","19","[""Asian""]","No","Female","781898","","","","","","","","184","140","113","17","25","1",""
"null","null","clear_screen","canvas-keyboard-response","36","217520","0.0-11.0-1.12","119","2022-4-7","9:24:8","0","19","[""Asian""]","No","Female","781898","","","","","","","","184","140","113","17","25","",""
"2473","1","rating","canvas-keyboard-response","37","220005","0.0-11.0-0.13","119","2022-4-7","9:24:8","0","19","[""Asian""]","No","Female","781898","","","","","","","","126","30","57","17","40","1",""
"null","null","clear_screen","canvas-keyboard-response","38","220263","0.0-11.0-1.13","119","2022-4-7","9:24:8","0","19","[""Asian""]","No","Female","781898","","","","","","","","126","30","57","17","40","",""
"2851","6","rating","canvas-keyboard-response","39","223124","0.0-11.0-0.14","119","2022-4-7","9:24:8","0","19","[""Asian""]","No","Female","781898","","","","","","","","226","85","57","25","33","0",""
"null","null","clear_screen","canvas-keyboard-response","40","223384","0.0-11.0-1.14","119","2022-4-7","9:24:8","0","19","[""Asian""]","No","Female","781898","","","","","","","","226","85","57","25","33","",""
"1467","3","rating","canvas-keyboard-response","41","224861","0.0-11.0-0.15","119","2022-4-7","9:24:8","0","19","[""Asian""]","No","Female","781898","","","","","","","","171","113","30","17","33","0",""
"null","null","clear_screen","canvas-keyboard-response","42","225119","0.0-11.0-1.15","119","2022-4-7","9:24:8","0","19","[""Asian""]","No","Female","781898","","","","","","","","171","113","30","17","33","",""
"1426","1","rating","canvas-keyboard-response","43","226557","0.0-11.0-0.16","119","2022-4-7","9:24:8","0","19","[""Asian""]","No","Female","781898","","","","","","","","76","113","30","10","25","1",""
"null","null","clear_screen","canvas-keyboard-response","44","226816","0.0-11.0-1.16","119","2022-4-7","9:24:8","0","19","[""Asian""]","No","Female","781898","","","","","","","","76","113","30","10","25","",""
"1410","1","rating","canvas-keyboard-response","45","228237","0.0-11.0-0.17","119","2022-4-7","9:24:8","0","19","[""Asian""]","No","Female","781898","","","","","","","","164","85","140","17","40","0",""
"null","null","clear_screen","canvas-keyboard-response","46","228495","0.0-11.0-1.17","119","2022-4-7","9:24:8","0","19","[""Asian""]","No","Female","781898","","","","","","","","164","85","140","17","40","",""
"754","1","rating","canvas-keyboard-response","47","229260","0.0-11.0-0.18","119","2022-4-7","9:24:8","0","19","[""Asian""]","No","Female","781898","","","","","","","","15","30","30","10","33","0",""
"null","null","clear_screen","canvas-keyboard-response","48","229519","0.0-11.0-1.18","119","2022-4-7","9:24:8","0","19","[""Asian""]","No","Female","781898","","","","","","","","15","30","30","10","33","",""
"1740","3","rating","canvas-keyboard-response","49","231270","0.0-11.0-0.19","119","2022-4-7","9:24:8","0","19","[""Asian""]","No","Female","781898","","","","","","","","7","30","85","10","17","1",""
"null","null","clear_screen","canvas-keyboard-response","50","231532","0.0-11.0-1.19","119","2022-4-7","9:24:8","0","19","[""Asian""]","No","Female","781898","","","","","","","","7","30","85","10","17","",""
"2420","2","rating","canvas-keyboard-response","51","233966","0.0-11.0-0.20","119","2022-4-7","9:24:8","0","19","[""Asian""]","No","Female","781898","","","","","","","","172","113","57","17","33","1",""
"null","null","clear_screen","canvas-keyboard-response","52","234225","0.0-11.0-1.20","119","2022-4-7","9:24:8","0","19","[""Asian""]","No","Female","781898","","","","","","","","172","113","57","17","33","",""
"2040","1","rating","canvas-keyboard-response","53","236277","0.0-11.0-0.21","119","2022-4-7","9:24:8","0","19","[""Asian""]","No","Female","781898","","","","","","","","140","57","85","17","33","1",""
"null","null","clear_screen","canvas-keyboard-response","54","236536","0.0-11.0-1.21","119","2022-4-7","9:24:8","0","19","[""Asian""]","No","Female","781898","","","","","","","","140","57","85","17","33","",""
"4289","6","rating","canvas-keyboard-response","55","240838","0.0-11.0-0.22","119","2022-4-7","9:24:8","0","19","[""Asian""]","No","Female","781898","","","","","","","","199","30","140","25","25","1",""
"null","null","clear_screen","canvas-keyboard-response","56","241097","0.0-11.0-1.22","119","2022-4-7","9:24:8","0","19","[""Asian""]","No","Female","781898","","","","","","","","199","30","140","25","25","",""
"3456","1","rating","canvas-keyboard-response","57","244565","0.0-11.0-0.23","119","2022-4-7","9:24:8","0","19","[""Asian""]","No","Female","781898","","","","","","","","163","85","113","17","40","1",""
"null","null","clear_screen","canvas-keyboard-response","58","244824","0.0-11.0-1.23","119","2022-4-7","9:24:8","0","19","[""Asian""]","No","Female","781898","","","","","","","","163","85","113","17","40","",""
"3049","3","rating","canvas-keyboard-response","59","247886","0.0-11.0-0.24","119","2022-4-7","9:24:8","0","19","[""Asian""]","No","Female","781898","","","","","","","","151","85","57","17","25","1",""
"null","null","clear_screen","canvas-keyboard-response","60","248144","0.0-11.0-1.24","119","2022-4-7","9:24:8","0","19","[""Asian""]","No","Female","781898","","","","","","","","151","85","57","17","25","",""
"2250","3","rating","canvas-keyboard-response","61","250406","0.0-11.0-0.25","119","2022-4-7","9:24:8","0","19","[""Asian""]","No","Female","781898","","","","","","","","139","57","57","17","33","1",""
"null","null","clear_screen","canvas-keyboard-response","62","250669","0.0-11.0-1.25","119","2022-4-7","9:24:8","0","19","[""Asian""]","No","Female","781898","","","","","","","","139","57","57","17","33","",""
"1187","3","rating","canvas-keyboard-response","63","251869","0.0-11.0-0.26","119","2022-4-7","9:24:8","0","19","[""Asian""]","No","Female","781898","","","","","","","","33","57","30","10","25","0",""
"null","null","clear_screen","canvas-keyboard-response","64","252129","0.0-11.0-1.26","119","2022-4-7","9:24:8","0","19","[""Asian""]","No","Female","781898","","","","","","","","33","57","30","10","25","",""
"1122","1","rating","canvas-keyboard-response","65","253264","0.0-11.0-0.27","119","2022-4-7","9:24:8","0","19","[""Asian""]","No","Female","781898","","","","","","","","39","57","57","10","33","1",""
"null","null","clear_screen","canvas-keyboard-response","66","253525","0.0-11.0-1.27","119","2022-4-7","9:24:8","0","19","[""Asian""]","No","Female","781898","","","","","","","","39","57","57","10","33","",""
"1467","5","rating","canvas-keyboard-response","67","255005","0.0-11.0-0.28","119","2022-4-7","9:24:8","0","19","[""Asian""]","No","Female","781898","","","","","","","","263","30","113","33","40","0",""
"null","null","clear_screen","canvas-keyboard-response","68","255264","0.0-11.0-1.28","119","2022-4-7","9:24:8","0","19","[""Asian""]","No","Female","781898","","","","","","","","263","30","113","33","40","",""
"3672","7","rating","canvas-keyboard-response","69","258950","0.0-11.0-0.29","119","2022-4-7","9:24:8","0","19","[""Asian""]","No","Female","781898","","","","","","","","259","30","140","33","33","1",""
"null","null","clear_screen","canvas-keyboard-response","70","259210","0.0-11.0-1.29","119","2022-4-7","9:24:8","0","19","[""Asian""]","No","Female","781898","","","","","","","","259","30","140","33","33","",""
"1367","2","rating","canvas-keyboard-response","71","260590","0.0-11.0-0.30","119","2022-4-7","9:24:8","0","19","[""Asian""]","No","Female","781898","","","","","","","","129","30","140","17","40","1",""
"null","null","clear_screen","canvas-keyboard-response","72","260849","0.0-11.0-1.30","119","2022-4-7","9:24:8","0","19","[""Asian""]","No","Female","781898","","","","","","","","129","30","140","17","40","",""
"1529","3","rating","canvas-keyboard-response","73","262389","0.0-11.0-0.31","119","2022-4-7","9:24:8","0","19","[""Asian""]","No","Female","781898","","","","","","","","134","57","57","17","25","0",""
"null","null","clear_screen","canvas-keyboard-response","74","262647","0.0-11.0-1.31","119","2022-4-7","9:24:8","0","19","[""Asian""]","No","Female","781898","","","","","","","","134","57","57","17","25","",""
"3465","6","rating","canvas-keyboard-response","75","266125","0.0-11.0-0.32","119","2022-4-7","9:24:8","0","19","[""Asian""]","No","Female","781898","","","","","","","","286","140","30","33","40","1",""
"null","null","clear_screen","canvas-keyboard-response","76","266384","0.0-11.0-1.32","119","2022-4-7","9:24:8","0","19","[""Asian""]","No","Female","781898","","","","","","","","286","140","30","33","40","",""
"1761","2","rating","canvas-keyboard-response","77","268156","0.0-11.0-0.33","119","2022-4-7","9:24:8","0","19","[""Asian""]","No","Female","781898","","","","","","","","138","57","30","17","33","1",""
"null","null","clear_screen","canvas-keyboard-response","78","268415","0.0-11.0-1.33","119","2022-4-7","9:24:8","0","19","[""Asian""]","No","Female","781898","","","","","","","","138","57","30","17","33","",""
"4050","2","rating","canvas-keyboard-response","79","272477","0.0-11.0-0.34","119","2022-4-7","9:24:8","0","19","[""Asian""]","No","Female","781898","","","","","","","","100","140","140","10","25","1",""
"null","null","clear_screen","canvas-keyboard-response","80","272739","0.0-11.0-1.34","119","2022-4-7","9:24:8","0","19","[""Asian""]","No","Female","781898","","","","","","","","100","140","140","10","25","",""
"1230","2","rating","canvas-keyboard-response","81","273981","0.0-11.0-0.35","119","2022-4-7","9:24:8","0","19","[""Asian""]","No","Female","781898","","","","","","","","34","57","57","10","25","0",""
"null","null","clear_screen","canvas-keyboard-response","82","274239","0.0-11.0-1.35","119","2022-4-7","9:24:8","0","19","[""Asian""]","No","Female","781898","","","","","","","","34","57","57","10","25","",""
"3994","5","rating","canvas-keyboard-response","83","278245","0.0-11.0-0.36","119","2022-4-7","9:24:8","0","19","[""Asian""]","No","Female","781898","","","","","","","","115","30","30","17","25","1",""
"null","null","clear_screen","canvas-keyboard-response","84","278504","0.0-11.0-1.36","119","2022-4-7","9:24:8","0","19","[""Asian""]","No","Female","781898","","","","","","","","115","30","30","17","25","",""
"2194","6","rating","canvas-keyboard-response","85","280708","0.0-11.0-0.37","119","2022-4-7","9:24:8","0","19","[""Asian""]","No","Female","781898","","","","","","","","157","85","85","17","33","0",""
"null","null","clear_screen","canvas-keyboard-response","86","280967","0.0-11.0-1.37","119","2022-4-7","9:24:8","0","19","[""Asian""]","No","Female","781898","","","","","","","","157","85","85","17","33","",""
"2266","3","rating","canvas-keyboard-response","87","283245","0.0-11.0-0.38","119","2022-4-7","9:24:8","0","19","[""Asian""]","No","Female","781898","","","","","","","","173","113","85","17","33","0",""
"null","null","clear_screen","canvas-keyboard-response","88","283505","0.0-11.0-1.38","119","2022-4-7","9:24:8","0","19","[""Asian""]","No","Female","781898","","","","","","","","173","113","85","17","33","",""
"1433","6","rating","canvas-keyboard-response","89","284949","0.0-11.0-0.39","119","2022-4-7","9:24:8","0","19","[""Asian""]","No","Female","781898","","","","","","","","219","57","57","25","40","0",""
"null","null","clear_screen","canvas-keyboard-response","90","285207","0.0-11.0-1.39","119","2022-4-7","9:24:8","0","19","[""Asian""]","No","Female","781898","","","","","","","","219","57","57","25","40","",""
"1353","3","rating","canvas-keyboard-response","91","286572","0.0-11.0-0.40","119","2022-4-7","9:24:8","0","19","[""Asian""]","No","Female","781898","","","","","","","","178","113","85","17","40","0",""
"null","null","clear_screen","canvas-keyboard-response","92","286831","0.0-11.0-1.40","119","2022-4-7","9:24:8","0","19","[""Asian""]","No","Female","781898","","","","","","","","178","113","85","17","40","",""
"2601","6","rating","canvas-keyboard-response","93","289445","0.0-11.0-0.41","119","2022-4-7","9:24:8","0","19","[""Asian""]","No","Female","781898","","","","","","","","204","30","140","25","33","1",""
"null","null","clear_screen","canvas-keyboard-response","94","289704","0.0-11.0-1.41","119","2022-4-7","9:24:8","0","19","[""Asian""]","No","Female","781898","","","","","","","","204","30","140","25","33","",""
"4265","6","rating","canvas-keyboard-response","95","293980","0.0-11.0-0.42","119","2022-4-7","9:24:8","0","19","[""Asian""]","No","Female","781898","","","","","","","","247","140","57","25","33","0",""
"null","null","clear_screen","canvas-keyboard-response","96","294240","0.0-11.0-1.42","119","2022-4-7","9:24:8","0","19","[""Asian""]","No","Female","781898","","","","","","","","247","140","57","25","33","",""
"3456","7","rating","canvas-keyboard-response","97","297710","0.0-11.0-0.43","119","2022-4-7","9:24:8","0","19","[""Asian""]","No","Female","781898","","","","","","","","148","85","113","17","17","1",""
"null","null","clear_screen","canvas-keyboard-response","98","297970","0.0-11.0-1.43","119","2022-4-7","9:24:8","0","19","[""Asian""]","No","Female","781898","","","","","","","","148","85","113","17","17","",""
"1349","2","rating","canvas-keyboard-response","99","299333","0.0-11.0-0.44","119","2022-4-7","9:24:8","0","19","[""Asian""]","No","Female","781898","","","","","","","","77","113","57","10","25","1",""
"null","null","clear_screen","canvas-keyboard-response","100","299593","0.0-11.0-1.44","119","2022-4-7","9:24:8","0","19","[""Asian""]","No","Female","781898","","","","","","","","77","113","57","10","25","",""
"1607","7","rating","canvas-keyboard-response","101","301213","0.0-11.0-0.45","119","2022-4-7","9:24:8","0","19","[""Asian""]","No","Female","781898","","","","","","","","225","85","30","25","33","0",""
"null","null","clear_screen","canvas-keyboard-response","102","301474","0.0-11.0-1.45","119","2022-4-7","9:24:8","0","19","[""Asian""]","No","Female","781898","","","","","","","","225","85","30","25","33","",""
"1263","8","rating","canvas-keyboard-response","103","302749","0.0-11.0-0.46","119","2022-4-7","9:24:8","0","19","[""Asian""]","No","Female","781898","","","","","","","","215","57","85","25","33","0",""
"null","null","clear_screen","canvas-keyboard-response","104","303009","0.0-11.0-1.46","119","2022-4-7","9:24:8","0","19","[""Asian""]","No","Female","781898","","","","","","","","215","57","85","25","33","",""
"1376","1","rating","canvas-keyboard-response","105","304396","0.0-11.0-0.47","119","2022-4-7","9:24:8","0","19","[""Asian""]","No","Female","781898","","","","","","","","102","140","57","10","33","1",""
"null","null","clear_screen","canvas-keyboard-response","106","304656","0.0-11.0-1.47","119","2022-4-7","9:24:8","0","19","[""Asian""]","No","Female","781898","","","","","","","","102","140","57","10","33","",""
"1976","7","rating","canvas-keyboard-response","107","306644","0.0-11.0-0.48","119","2022-4-7","9:24:8","0","19","[""Asian""]","No","Female","781898","","","","","","","","48","85","113","10","10","1",""
"null","null","clear_screen","canvas-keyboard-response","108","306905","0.0-11.0-1.48","119","2022-4-7","9:24:8","0","19","[""Asian""]","No","Female","781898","","","","","","","","48","85","113","10","10","",""
"1551","7","rating","canvas-keyboard-response","109","308468","0.0-11.0-0.49","119","2022-4-7","9:24:8","0","19","[""Asian""]","No","Female","781898","","","","","","","","299","85","140","40","40","1",""
"null","null","clear_screen","canvas-keyboard-response","110","308728","0.0-11.0-1.49","119","2022-4-7","9:24:8","0","19","[""Asian""]","No","Female","781898","","","","","","","","299","85","140","40","40","",""
"1217","4","rating","canvas-keyboard-response","111","309957","0.0-11.0-0.50","119","2022-4-7","9:24:8","0","19","[""Asian""]","No","Female","781898","","","","","","","","158","85","113","17","33","1",""
"null","null","clear_screen","canvas-keyboard-response","112","310217","0.0-11.0-1.50","119","2022-4-7","9:24:8","0","19","[""Asian""]","No","Female","781898","","","","","","","","158","85","113","17","33","",""
"1977","6","rating","canvas-keyboard-response","113","312205","0.0-11.0-0.51","119","2022-4-7","9:24:8","0","19","[""Asian""]","No","Female","781898","","","","","","","","26","57","113","10","10","1",""
"null","null","clear_screen","canvas-keyboard-response","114","312463","0.0-11.0-1.51","119","2022-4-7","9:24:8","0","19","[""Asian""]","No","Female","781898","","","","","","","","26","57","113","10","10","",""
"1187","1","rating","canvas-keyboard-response","115","313661","0.0-11.0-0.52","119","2022-4-7","9:24:8","0","19","[""Asian""]","No","Female","781898","","","","","","","","42","57","140","10","33","1",""
"null","null","clear_screen","canvas-keyboard-response","116","313921","0.0-11.0-1.52","119","2022-4-7","9:24:8","0","19","[""Asian""]","No","Female","781898","","","","","","","","42","57","140","10","33","",""
"1921","3","rating","canvas-keyboard-response","117","315853","0.0-11.0-0.53","119","2022-4-7","9:24:8","0","19","[""Asian""]","No","Female","781898","","","","","","","","10","30","30","10","25","0",""
"null","null","clear_screen","canvas-keyboard-response","118","316112","0.0-11.0-1.53","119","2022-4-7","9:24:8","0","19","[""Asian""]","No","Female","781898","","","","","","","","10","30","30","10","25","",""
"5281","3","rating","canvas-keyboard-response","119","321404","0.0-11.0-0.54","119","2022-4-7","9:24:8","0","19","[""Asian""]","No","Female","781898","","","","","","","","179","113","113","17","40","1",""
"null","null","clear_screen","canvas-keyboard-response","120","321663","0.0-11.0-1.54","119","2022-4-7","9:24:8","0","19","[""Asian""]","No","Female","781898","","","","","","","","179","113","113","17","40","",""
"1390","7","rating","canvas-keyboard-response","121","323069","0.0-11.0-0.55","119","2022-4-7","9:24:8","0","19","[""Asian""]","No","Female","781898","","","","","","","","289","140","113","33","40","0",""
"null","null","clear_screen","canvas-keyboard-response","122","323327","0.0-11.0-1.55","119","2022-4-7","9:24:8","0","19","[""Asian""]","No","Female","781898","","","","","","","","289","140","113","33","40","",""
"3251","4","rating","canvas-keyboard-response","123","326588","0.0-11.0-0.56","119","2022-4-7","9:24:8","0","19","[""Asian""]","No","Female","781898","","","","","","","","232","85","85","25","40","0",""
"null","null","clear_screen","canvas-keyboard-response","124","326847","0.0-11.0-1.56","119","2022-4-7","9:24:8","0","19","[""Asian""]","No","Female","781898","","","","","","","","232","85","85","25","40","",""
"1913","1","rating","canvas-keyboard-response","125","328772","0.0-11.0-0.57","119","2022-4-7","9:24:8","0","19","[""Asian""]","No","Female","781898","","","","","","","","125","30","30","17","40","0",""
"null","null","clear_screen","canvas-keyboard-response","126","329031","0.0-11.0-1.57","119","2022-4-7","9:24:8","0","19","[""Asian""]","No","Female","781898","","","","","","","","125","30","30","17","40","",""
"1666","6","rating","canvas-keyboard-response","127","330709","0.0-11.0-0.58","119","2022-4-7","9:24:8","0","19","[""Asian""]","No","Female","781898","","","","","","","","227","85","85","25","33","1",""
"null","null","clear_screen","canvas-keyboard-response","128","330968","0.0-11.0-1.58","119","2022-4-7","9:24:8","0","19","[""Asian""]","No","Female","781898","","","","","","","","227","85","85","25","33","",""
"3185","7","rating","canvas-keyboard-response","129","334164","0.0-11.0-0.59","119","2022-4-7","9:24:8","0","19","[""Asian""]","No","Female","781898","","","","","","","","273","85","113","33","33","0",""
"null","null","clear_screen","canvas-keyboard-response","130","334423","0.0-11.0-1.59","119","2022-4-7","9:24:8","0","19","[""Asian""]","No","Female","781898","","","","","","","","273","85","113","33","33","",""
"1258","1","rating","canvas-keyboard-response","131","335692","0.0-11.0-0.60","119","2022-4-7","9:24:8","0","19","[""Asian""]","No","Female","781898","","","","","","","","64","85","140","10","33","1",""
"null","null","clear_screen","canvas-keyboard-response","132","335951","0.0-11.0-1.60","119","2022-4-7","9:24:8","0","19","[""Asian""]","No","Female","781898","","","","","","","","64","85","140","10","33","",""
"1826","8","rating","canvas-keyboard-response","133","337789","0.0-11.0-0.61","119","2022-4-7","9:24:8","0","19","[""Asian""]","No","Female","781898","","","","","","","","294","30","140","40","40","1",""
"null","null","clear_screen","canvas-keyboard-response","134","338047","0.0-11.0-1.61","119","2022-4-7","9:24:8","0","19","[""Asian""]","No","Female","781898","","","","","","","","294","30","140","40","40","",""
"2656","8","rating","canvas-keyboard-response","135","340716","0.0-11.0-0.62","119","2022-4-7","9:24:8","0","19","[""Asian""]","No","Female","781898","","","","","","","","282","113","57","33","40","1",""
"null","null","clear_screen","canvas-keyboard-response","136","340976","0.0-11.0-1.62","119","2022-4-7","9:24:8","0","19","[""Asian""]","No","Female","781898","","","","","","","","282","113","57","33","40","",""
"2105","5","rating","canvas-keyboard-response","137","343092","0.0-11.0-0.63","119","2022-4-7","9:24:8","0","19","[""Asian""]","No","Female","781898","","","","","","","","207","30","85","25","40","0",""
"null","null","clear_screen","canvas-keyboard-response","138","343351","0.0-11.0-1.63","119","2022-4-7","9:24:8","0","19","[""Asian""]","No","Female","781898","","","","","","","","207","30","85","25","40","",""
"1258","3","rating","canvas-keyboard-response","139","344620","0.0-11.0-0.64","119","2022-4-7","9:24:8","0","19","[""Asian""]","No","Female","781898","","","","","","","","32","57","140","10","17","0",""
"null","null","clear_screen","canvas-keyboard-response","140","344878","0.0-11.0-1.64","119","2022-4-7","9:24:8","0","19","[""Asian""]","No","Female","781898","","","","","","","","32","57","140","10","17","",""
"4594","1","rating","canvas-keyboard-response","141","349485","0.0-11.0-0.65","119","2022-4-7","9:24:8","0","19","[""Asian""]","No","Female","781898","","","","","","","","106","140","30","10","40","1",""
"null","null","clear_screen","canvas-keyboard-response","142","349744","0.0-11.0-1.65","119","2022-4-7","9:24:8","0","19","[""Asian""]","No","Female","781898","","","","","","","","106","140","30","10","40","",""
"857","1","rating","canvas-keyboard-response","143","350613","0.0-11.0-0.66","119","2022-4-7","9:24:8","0","19","[""Asian""]","No","Female","781898","","","","","","","","89","113","113","10","40","0",""
"null","null","clear_screen","canvas-keyboard-response","144","350871","0.0-11.0-1.66","119","2022-4-7","9:24:8","0","19","[""Asian""]","No","Female","781898","","","","","","","","89","113","113","10","40","",""
"1490","3","rating","canvas-keyboard-response","145","352372","0.0-11.0-0.67","119","2022-4-7","9:24:8","0","19","[""Asian""]","No","Female","781898","","","","","","","","121","30","57","17","33","1",""
"null","null","clear_screen","canvas-keyboard-response","146","352632","0.0-11.0-1.67","119","2022-4-7","9:24:8","0","19","[""Asian""]","No","Female","781898","","","","","","","","121","30","57","17","33","",""
"1593","4","rating","canvas-keyboard-response","147","354236","0.0-11.0-0.68","119","2022-4-7","9:24:8","0","19","[""Asian""]","No","Female","781898","","","","","","","","185","140","140","17","25","1",""
"null","null","clear_screen","canvas-keyboard-response","148","354496","0.0-11.0-1.68","119","2022-4-7","9:24:8","0","19","[""Asian""]","No","Female","781898","","","","","","","","185","140","140","17","25","",""
"1849","7","rating","canvas-keyboard-response","149","356357","0.0-11.0-0.69","119","2022-4-7","9:24:8","0","19","[""Asian""]","No","Female","781898","","","","","","","","274","85","140","33","33","0",""
"null","null","clear_screen","canvas-keyboard-response","150","356616","0.0-11.0-1.69","119","2022-4-7","9:24:8","0","19","[""Asian""]","No","Female","781898","","","","","","","","274","85","140","33","33","",""
"1307","4","rating","canvas-keyboard-response","151","357933","0.0-11.0-0.70","119","2022-4-7","9:24:8","0","19","[""Asian""]","No","Female","781898","","","","","","","","132","57","140","17","17","1",""
"null","null","clear_screen","canvas-keyboard-response","152","358196","0.0-11.0-1.70","119","2022-4-7","9:24:8","0","19","[""Asian""]","No","Female","781898","","","","","","","","132","57","140","17","17","",""
"1386","2","rating","canvas-keyboard-response","153","359596","0.0-11.0-0.71","119","2022-4-7","9:24:8","0","19","[""Asian""]","No","Female","781898","","","","","","","","104","140","113","10","33","1",""
"null","null","clear_screen","canvas-keyboard-response","154","359857","0.0-11.0-1.71","119","2022-4-7","9:24:8","0","19","[""Asian""]","No","Female","781898","","","","","","","","104","140","113","10","33","",""
"2334","4","rating","canvas-keyboard-response","155","362204","0.0-11.0-0.72","119","2022-4-7","9:24:8","0","19","[""Asian""]","No","Female","781898","","","","","","","","56","85","57","10","25","0",""
"null","null","clear_screen","canvas-keyboard-response","156","362463","0.0-11.0-1.72","119","2022-4-7","9:24:8","0","19","[""Asian""]","No","Female","781898","","","","","","","","56","85","57","10","25","",""
"1162","7","rating","canvas-keyboard-response","157","363636","0.0-11.0-0.73","119","2022-4-7","9:24:8","0","19","[""Asian""]","No","Female","781898","","","","","","","","67","85","85","10","40","0",""
"null","null","clear_screen","canvas-keyboard-response","158","363895","0.0-11.0-1.73","119","2022-4-7","9:24:8","0","19","[""Asian""]","No","Female","781898","","","","","","","","67","85","85","10","40","",""
"1553","8","rating","canvas-keyboard-response","159","365460","0.0-11.0-0.74","119","2022-4-7","9:24:8","0","19","[""Asian""]","No","Female","781898","","","","","","","","216","57","113","25","33","0",""
"null","null","clear_screen","canvas-keyboard-response","160","365720","0.0-11.0-1.74","119","2022-4-7","9:24:8","0","19","[""Asian""]","No","Female","781898","","","","","","","","216","57","113","25","33","",""
"1720","2","rating","canvas-keyboard-response","161","367453","0.0-11.0-0.75","119","2022-4-7","9:24:8","0","19","[""Asian""]","No","Female","781898","","","","","","","","72","113","57","10","17","1",""
"null","null","clear_screen","canvas-keyboard-response","162","367713","0.0-11.0-1.75","119","2022-4-7","9:24:8","0","19","[""Asian""]","No","Female","781898","","","","","","","","72","113","57","10","17","",""
"1472","5","rating","canvas-keyboard-response","163","369196","0.0-11.0-0.76","119","2022-4-7","9:24:8","0","19","[""Asian""]","No","Female","781898","","","","","","","","40","57","85","10","33","0",""
"null","null","clear_screen","canvas-keyboard-response","164","369455","0.0-11.0-1.76","119","2022-4-7","9:24:8","0","19","[""Asian""]","No","Female","781898","","","","","","","","40","57","85","10","33","",""
"3017","3","rating","canvas-keyboard-response","165","372484","0.0-11.0-0.77","119","2022-4-7","9:24:8","0","19","[""Asian""]","No","Female","781898","","","","","","","","195","140","140","17","40","1",""
"null","null","clear_screen","canvas-keyboard-response","166","372743","0.0-11.0-1.77","119","2022-4-7","9:24:8","0","19","[""Asian""]","No","Female","781898","","","","","","","","195","140","140","17","40","",""
"1867","6","rating","canvas-keyboard-response","167","374620","0.0-11.0-0.78","119","2022-4-7","9:24:8","0","19","[""Asian""]","No","Female","781898","","","","","","","","244","113","113","25","40","0",""
"null","null","clear_screen","canvas-keyboard-response","168","374879","0.0-11.0-1.78","119","2022-4-7","9:24:8","0","19","[""Asian""]","No","Female","781898","","","","","","","","244","113","113","25","40","",""
"5185","6","rating","canvas-keyboard-response","169","380076","0.0-11.0-0.79","119","2022-4-7","9:24:8","0","19","[""Asian""]","No","Female","781898","","","","","","","","221","57","113","25","40","0",""
"null","null","clear_screen","canvas-keyboard-response","170","380336","0.0-11.0-1.79","119","2022-4-7","9:24:8","0","19","[""Asian""]","No","Female","781898","","","","","","","","221","57","113","25","40","",""
"3210","3","rating","canvas-keyboard-response","171","383557","0.0-11.0-0.80","119","2022-4-7","9:24:8","0","19","[""Asian""]","No","Female","781898","","","","","","","","143","57","30","17","40","1",""
"null","null","clear_screen","canvas-keyboard-response","172","383819","0.0-11.0-1.80","119","2022-4-7","9:24:8","0","19","[""Asian""]","No","Female","781898","","","","","","","","143","57","30","17","40","",""
"3322","3","rating","canvas-keyboard-response","173","387156","0.0-11.0-0.81","119","2022-4-7","9:24:8","0","19","[""Asian""]","No","Female","781898","","","","","","","","52","85","85","10","17","1",""
"null","null","clear_screen","canvas-keyboard-response","174","387417","0.0-11.0-1.81","119","2022-4-7","9:24:8","0","19","[""Asian""]","No","Female","781898","","","","","","","","52","85","85","10","17","",""
"3873","3","rating","canvas-keyboard-response","175","391300","0.0-11.0-0.82","119","2022-4-7","9:24:8","0","19","[""Asian""]","No","Female","781898","","","","","","","","122","30","85","17","33","1",""
"null","null","clear_screen","canvas-keyboard-response","176","391560","0.0-11.0-1.82","119","2022-4-7","9:24:8","0","19","[""Asian""]","No","Female","781898","","","","","","","","122","30","85","17","33","",""
"1561","3","rating","canvas-keyboard-response","177","393133","0.0-11.0-0.83","119","2022-4-7","9:24:8","0","19","[""Asian""]","No","Female","781898","","","","","","","","66","85","57","10","40","0",""
"null","null","clear_screen","canvas-keyboard-response","178","393392","0.0-11.0-1.83","119","2022-4-7","9:24:8","0","19","[""Asian""]","No","Female","781898","","","","","","","","66","85","57","10","40","",""
"1295","6","rating","canvas-keyboard-response","179","394701","0.0-11.0-0.84","119","2022-4-7","9:24:8","0","19","[""Asian""]","No","Female","781898","","","","","","","","152","85","85","17","25","1",""
"null","null","clear_screen","canvas-keyboard-response","180","394959","0.0-11.0-1.84","119","2022-4-7","9:24:8","0","19","[""Asian""]","No","Female","781898","","","","","","","","152","85","85","17","25","",""
"1528","6","rating","canvas-keyboard-response","181","396500","0.0-11.0-0.85","119","2022-4-7","9:24:8","0","19","[""Asian""]","No","Female","781898","","","","","","","","142","57","140","17","33","1",""
"null","null","clear_screen","canvas-keyboard-response","182","396759","0.0-11.0-1.85","119","2022-4-7","9:24:8","0","19","[""Asian""]","No","Female","781898","","","","","","","","142","57","140","17","33","",""
"2545","6","rating","canvas-keyboard-response","183","399315","0.0-11.0-0.86","119","2022-4-7","9:24:8","0","19","[""Asian""]","No","Female","781898","","","","","","","","119","30","140","17","25","0",""
"null","null","clear_screen","canvas-keyboard-response","184","399575","0.0-11.0-1.86","119","2022-4-7","9:24:8","0","19","[""Asian""]","No","Female","781898","","","","","","","","119","30","140","17","25","",""
"2457","3","rating","canvas-keyboard-response","185","402044","0.0-11.0-0.87","119","2022-4-7","9:24:8","0","19","[""Asian""]","No","Female","781898","","","","","","","","127","30","85","17","40","1",""
"null","null","clear_screen","canvas-keyboard-response","186","402304","0.0-11.0-1.87","119","2022-4-7","9:24:8","0","19","[""Asian""]","No","Female","781898","","","","","","","","127","30","85","17","40","",""
"3472","4","rating","canvas-keyboard-response","187","405788","0.0-11.0-0.88","119","2022-4-7","9:24:8","0","19","[""Asian""]","No","Female","781898","","","","","","","","190","140","140","17","33","0",""
"null","null","clear_screen","canvas-keyboard-response","188","406047","0.0-11.0-1.88","119","2022-4-7","9:24:8","0","19","[""Asian""]","No","Female","781898","","","","","","","","190","140","140","17","33","",""
"4985","6","rating","canvas-keyboard-response","189","411044","0.0-11.0-0.89","119","2022-4-7","9:24:8","0","19","[""Asian""]","No","Female","781898","","","","","","","","281","113","30","33","40","1",""
"null","null","clear_screen","canvas-keyboard-response","190","411304","0.0-11.0-1.89","119","2022-4-7","9:24:8","0","19","[""Asian""]","No","Female","781898","","","","","","","","281","113","30","33","40","",""
"2220","2","rating","canvas-keyboard-response","191","413539","0.0-11.0-0.90","119","2022-4-7","9:24:8","0","19","[""Asian""]","No","Female","781898","","","","","","","","191","140","30","17","40","1",""
"null","null","clear_screen","canvas-keyboard-response","192","413799","0.0-11.0-1.90","119","2022-4-7","9:24:8","0","19","[""Asian""]","No","Female","781898","","","","","","","","191","140","30","17","40","",""
"9968","1","rating","canvas-keyboard-response","193","423780","0.0-11.0-0.91","119","2022-4-7","9:24:8","0","19","[""Asian""]","No","Female","781898","","","","","","","","46","57","113","10","40","1",""
"null","null","clear_screen","canvas-keyboard-response","194","424039","0.0-11.0-1.91","119","2022-4-7","9:24:8","0","19","[""Asian""]","No","Female","781898","","","","","","","","46","57","113","10","40","",""
"1082","1","rating","canvas-keyboard-response","195","425132","0.0-11.0-0.92","119","2022-4-7","9:24:8","0","19","[""Asian""]","No","Female","781898","","","","","","","","45","57","85","10","40","1",""
"null","null","clear_screen","canvas-keyboard-response","196","425391","0.0-11.0-1.92","119","2022-4-7","9:24:8","0","19","[""Asian""]","No","Female","781898","","","","","","","","45","57","85","10","40","",""
"634","1","rating","canvas-keyboard-response","197","426036","0.0-11.0-0.93","119","2022-4-7","9:24:8","0","19","[""Asian""]","No","Female","781898","","","","","","","","18","30","113","10","33","1",""
"null","null","clear_screen","canvas-keyboard-response","198","426294","0.0-11.0-1.93","119","2022-4-7","9:24:8","0","19","[""Asian""]","No","Female","781898","","","","","","","","18","30","113","10","33","",""
"1019","1","rating","canvas-keyboard-response","199","427323","0.0-11.0-0.94","119","2022-4-7","9:24:8","0","19","[""Asian""]","No","Female","781898","","","","","","","","24","30","140","10","40","0",""
"null","null","clear_screen","canvas-keyboard-response","200","427583","0.0-11.0-1.94","119","2022-4-7","9:24:8","0","19","[""Asian""]","No","Female","781898","","","","","","","","24","30","140","10","40","",""
"1818","7","rating","canvas-keyboard-response","201","429412","0.0-11.0-0.95","119","2022-4-7","9:24:8","0","19","[""Asian""]","No","Female","781898","","","","","","","","205","30","30","25","40","0",""
"null","null","clear_screen","canvas-keyboard-response","202","429671","0.0-11.0-1.95","119","2022-4-7","9:24:8","0","19","[""Asian""]","No","Female","781898","","","","","","","","205","30","30","25","40","",""
"849","1","rating","canvas-keyboard-response","203","430532","0.0-11.0-0.96","119","2022-4-7","9:24:8","0","19","[""Asian""]","No","Female","781898","","","","","","","","83","113","85","10","33","0",""
"null","null","clear_screen","canvas-keyboard-response","204","430791","0.0-11.0-1.96","119","2022-4-7","9:24:8","0","19","[""Asian""]","No","Female","781898","","","","","","","","83","113","85","10","33","",""
"1167","6","rating","canvas-keyboard-response","205","431971","0.0-11.0-0.97","119","2022-4-7","9:24:8","0","19","[""Asian""]","No","Female","781898","","","","","","","","292","30","85","40","40","0",""
"null","null","clear_screen","canvas-keyboard-response","206","432230","0.0-11.0-1.97","119","2022-4-7","9:24:8","0","19","[""Asian""]","No","Female","781898","","","","","","","","292","30","85","40","40","",""
"947","1","rating","canvas-keyboard-response","207","433188","0.0-11.0-0.98","119","2022-4-7","9:24:8","0","19","[""Asian""]","No","Female","781898","","","","","","","","41","57","113","10","33","0",""
"null","null","clear_screen","canvas-keyboard-response","208","433447","0.0-11.0-1.98","119","2022-4-7","9:24:8","0","19","[""Asian""]","No","Female","781898","","","","","","","","41","57","113","10","33","",""
"1153","2","rating","canvas-keyboard-response","209","434611","0.0-11.0-0.99","119","2022-4-7","9:24:8","0","19","[""Asian""]","No","Female","781898","","","","","","","","144","57","57","17","40","0",""
"null","null","clear_screen","canvas-keyboard-response","210","434870","0.0-11.0-1.99","119","2022-4-7","9:24:8","0","19","[""Asian""]","No","Female","781898","","","","","","","","144","57","57","17","40","",""
"1379","4","rating","canvas-keyboard-response","211","436260","0.0-11.0-0.100","119","2022-4-7","9:24:8","0","19","[""Asian""]","No","Female","781898","","","","","","","","120","30","30","17","33","1",""
"null","null","clear_screen","canvas-keyboard-response","212","436519","0.0-11.0-1.100","119","2022-4-7","9:24:8","0","19","[""Asian""]","No","Female","781898","","","","","","","","120","30","30","17","33","",""
"2825","7","rating","canvas-keyboard-response","213","439355","0.0-11.0-0.101","119","2022-4-7","9:24:8","0","19","[""Asian""]","No","Female","781898","","","","","","","","31","57","113","10","17","0",""
"null","null","clear_screen","canvas-keyboard-response","214","439614","0.0-11.0-1.101","119","2022-4-7","9:24:8","0","19","[""Asian""]","No","Female","781898","","","","","","","","31","57","113","10","17","",""
"1874","6","rating","canvas-keyboard-response","215","441499","0.0-11.0-0.102","119","2022-4-7","9:24:8","0","19","[""Asian""]","No","Female","781898","","","","","","","","183","140","85","17","25","0",""
"null","null","clear_screen","canvas-keyboard-response","216","441759","0.0-11.0-1.102","119","2022-4-7","9:24:8","0","19","[""Asian""]","No","Female","781898","","","","","","","","183","140","85","17","25","",""
"1210","7","rating","canvas-keyboard-response","217","442979","0.0-11.0-0.103","119","2022-4-7","9:24:8","0","19","[""Asian""]","No","Female","781898","","","","","","","","300","113","140","40","40","1",""
"null","null","clear_screen","canvas-keyboard-response","218","443238","0.0-11.0-1.103","119","2022-4-7","9:24:8","0","19","[""Asian""]","No","Female","781898","","","","","","","","300","113","140","40","40","",""
"953","6","rating","canvas-keyboard-response","219","444203","0.0-11.0-0.104","119","2022-4-7","9:24:8","0","19","[""Asian""]","No","Female","781898","","","","","","","","291","30","57","40","40","1",""
"null","null","clear_screen","canvas-keyboard-response","220","444464","0.0-11.0-1.104","119","2022-4-7","9:24:8","0","19","[""Asian""]","No","Female","781898","","","","","","","","291","30","57","40","40","",""
"1720","5","rating","canvas-keyboard-response","221","446196","0.0-11.0-0.105","119","2022-4-7","9:24:8","0","19","[""Asian""]","No","Female","781898","","","","","","","","236","113","30","25","33","1",""
"null","null","clear_screen","canvas-keyboard-response","222","446460","0.0-11.0-1.105","119","2022-4-7","9:24:8","0","19","[""Asian""]","No","Female","781898","","","","","","","","236","113","30","25","33","",""
"2545","3","rating","canvas-keyboard-response","223","449019","0.0-11.0-0.106","119","2022-4-7","9:24:8","0","19","[""Asian""]","No","Female","781898","","","","","","","","174","113","113","17","33","1",""
"null","null","clear_screen","canvas-keyboard-response","224","449280","0.0-11.0-1.106","119","2022-4-7","9:24:8","0","19","[""Asian""]","No","Female","781898","","","","","","","","174","113","113","17","33","",""
"1903","6","rating","canvas-keyboard-response","225","451196","0.0-11.0-0.107","119","2022-4-7","9:24:8","0","19","[""Asian""]","No","Female","781898","","","","","","","","29","57","57","10","17","1",""
"null","null","clear_screen","canvas-keyboard-response","226","451455","0.0-11.0-1.107","119","2022-4-7","9:24:8","0","19","[""Asian""]","No","Female","781898","","","","","","","","29","57","57","10","17","",""
"1153","1","rating","canvas-keyboard-response","227","452620","0.0-11.0-0.108","119","2022-4-7","9:24:8","0","19","[""Asian""]","No","Female","781898","","","","","","","","65","85","30","10","40","0",""
"null","null","clear_screen","canvas-keyboard-response","228","452880","0.0-11.0-1.108","119","2022-4-7","9:24:8","0","19","[""Asian""]","No","Female","781898","","","","","","","","65","85","30","10","40","",""
"1064","6","rating","canvas-keyboard-response","229","453956","0.0-11.0-0.109","119","2022-4-7","9:24:8","0","19","[""Asian""]","No","Female","781898","","","","","","","","13","30","113","10","25","0",""
"null","null","clear_screen","canvas-keyboard-response","230","454215","0.0-11.0-1.109","119","2022-4-7","9:24:8","0","19","[""Asian""]","No","Female","781898","","","","","","","","13","30","113","10","25","",""
"1064","6","rating","canvas-keyboard-response","231","455292","0.0-11.0-0.110","119","2022-4-7","9:24:8","0","19","[""Asian""]","No","Female","781898","","","","","","","","269","57","57","33","40","0",""
"null","null","clear_screen","canvas-keyboard-response","232","455552","0.0-11.0-1.110","119","2022-4-7","9:24:8","0","19","[""Asian""]","No","Female","781898","","","","","","","","269","57","57","33","40","",""
"1022","4","rating","canvas-keyboard-response","233","456588","0.0-11.0-0.111","119","2022-4-7","9:24:8","0","19","[""Asian""]","No","Female","781898","","","","","","","","192","140","57","17","40","0",""
"null","null","clear_screen","canvas-keyboard-response","234","456847","0.0-11.0-1.111","119","2022-4-7","9:24:8","0","19","[""Asian""]","No","Female","781898","","","","","","","","192","140","57","17","40","",""
"793","7","rating","canvas-keyboard-response","235","457651","0.0-11.0-0.112","119","2022-4-7","9:24:8","0","19","[""Asian""]","No","Female","781898","","","","","","","","258","30","113","33","33","0",""
"null","null","clear_screen","canvas-keyboard-response","236","457912","0.0-11.0-1.112","119","2022-4-7","9:24:8","0","19","[""Asian""]","No","Female","781898","","","","","","","","258","30","113","33","33","",""
"3593","3","rating","canvas-keyboard-response","237","461516","0.0-11.0-0.113","119","2022-4-7","9:24:8","0","19","[""Asian""]","No","Female","781898","","","","","","","","161","85","57","17","40","1",""
"null","null","clear_screen","canvas-keyboard-response","238","461775","0.0-11.0-1.113","119","2022-4-7","9:24:8","0","19","[""Asian""]","No","Female","781898","","","","","","","","161","85","57","17","40","",""
"1825","3","rating","canvas-keyboard-response","239","463611","0.0-11.0-0.114","119","2022-4-7","9:24:8","0","19","[""Asian""]","No","Female","781898","","","","","","","","186","140","30","17","33","1",""
"null","null","clear_screen","canvas-keyboard-response","240","463870","0.0-11.0-1.114","119","2022-4-7","9:24:8","0","19","[""Asian""]","No","Female","781898","","","","","","","","186","140","30","17","33","",""
"689","3","rating","canvas-keyboard-response","241","464572","0.0-11.0-0.115","119","2022-4-7","9:24:8","0","19","[""Asian""]","No","Female","781898","","","","","","","","108","140","85","10","40","0",""
"null","null","clear_screen","canvas-keyboard-response","242","464830","0.0-11.0-1.115","119","2022-4-7","9:24:8","0","19","[""Asian""]","No","Female","781898","","","","","","","","108","140","85","10","40","",""
"801","1","rating","canvas-keyboard-response","243","465643","0.0-11.0-0.116","119","2022-4-7","9:24:8","0","19","[""Asian""]","No","Female","781898","","","","","","","","86","113","30","10","40","1",""
"null","null","clear_screen","canvas-keyboard-response","244","465902","0.0-11.0-1.116","119","2022-4-7","9:24:8","0","19","[""Asian""]","No","Female","781898","","","","","","","","86","113","30","10","40","",""
"1018","3","rating","canvas-keyboard-response","245","466931","0.0-11.0-0.117","119","2022-4-7","9:24:8","0","19","[""Asian""]","No","Female","781898","","","","","","","","123","30","113","17","33","0",""
"null","null","clear_screen","canvas-keyboard-response","246","467191","0.0-11.0-1.117","119","2022-4-7","9:24:8","0","19","[""Asian""]","No","Female","781898","","","","","","","","123","30","113","17","33","",""
"1293","7","rating","canvas-keyboard-response","247","468499","0.0-11.0-0.118","119","2022-4-7","9:24:8","0","19","[""Asian""]","No","Female","781898","","","","","","","","93","140","85","10","17","1",""
"null","null","clear_screen","canvas-keyboard-response","248","468759","0.0-11.0-1.118","119","2022-4-7","9:24:8","0","19","[""Asian""]","No","Female","781898","","","","","","","","93","140","85","10","17","",""
"1977","6","rating","canvas-keyboard-response","249","470748","0.0-11.0-0.119","119","2022-4-7","9:24:8","0","19","[""Asian""]","No","Female","781898","","","","","","","","234","85","140","25","40","0",""
"null","null","clear_screen","canvas-keyboard-response","250","471007","0.0-11.0-1.119","119","2022-4-7","9:24:8","0","19","[""Asian""]","No","Female","781898","","","","","","","","234","85","140","25","40","",""
"1281","7","rating","canvas-keyboard-response","251","472299","0.0-11.0-0.120","119","2022-4-7","9:24:8","0","19","[""Asian""]","No","Female","781898","","","","","","","","25","57","85","10","10","1",""
"null","null","clear_screen","canvas-keyboard-response","252","472558","0.0-11.0-1.120","119","2022-4-7","9:24:8","0","19","[""Asian""]","No","Female","781898","","","","","","","","25","57","85","10","10","",""
"1738","4","rating","canvas-keyboard-response","253","474308","0.0-11.0-0.121","119","2022-4-7","9:24:8","0","19","[""Asian""]","No","Female","781898","","","","","","","","177","113","57","17","40","1",""
"null","null","clear_screen","canvas-keyboard-response","254","474566","0.0-11.0-1.121","119","2022-4-7","9:24:8","0","19","[""Asian""]","No","Female","781898","","","","","","","","177","113","57","17","40","",""
"1274","3","rating","canvas-keyboard-response","255","475851","0.0-11.0-0.122","119","2022-4-7","9:24:8","0","19","[""Asian""]","No","Female","781898","","","","","","","","251","140","30","25","40","0",""
"null","null","clear_screen","canvas-keyboard-response","256","476111","0.0-11.0-1.122","119","2022-4-7","9:24:8","0","19","[""Asian""]","No","Female","781898","","","","","","","","251","140","30","25","40","",""
"995","1","rating","canvas-keyboard-response","257","477116","0.0-11.0-0.123","119","2022-4-7","9:24:8","0","19","[""Asian""]","No","Female","781898","","","","","","","","20","30","30","10","40","1",""
"null","null","clear_screen","canvas-keyboard-response","258","477375","0.0-11.0-1.123","119","2022-4-7","9:24:8","0","19","[""Asian""]","No","Female","781898","","","","","","","","20","30","30","10","40","",""
"570","1","rating","canvas-keyboard-response","259","477955","0.0-11.0-0.124","119","2022-4-7","9:24:8","0","19","[""Asian""]","No","Female","781898","","","","","","","","87","113","57","10","40","1",""
"null","null","clear_screen","canvas-keyboard-response","260","478214","0.0-11.0-1.124","119","2022-4-7","9:24:8","0","19","[""Asian""]","No","Female","781898","","","","","","","","87","113","57","10","40","",""
"1009","6","rating","canvas-keyboard-response","261","479235","0.0-11.0-0.125","119","2022-4-7","9:24:8","0","19","[""Asian""]","No","Female","781898","","","","","","","","118","30","113","17","25","1",""
"null","null","clear_screen","canvas-keyboard-response","262","479494","0.0-11.0-1.125","119","2022-4-7","9:24:8","0","19","[""Asian""]","No","Female","781898","","","","","","","","118","30","113","17","25","",""
"849","7","rating","canvas-keyboard-response","263","480356","0.0-11.0-0.126","119","2022-4-7","9:24:8","0","19","[""Asian""]","No","Female","781898","","","","","","","","270","57","85","33","40","0",""
"null","null","clear_screen","canvas-keyboard-response","264","480618","0.0-11.0-1.126","119","2022-4-7","9:24:8","0","19","[""Asian""]","No","Female","781898","","","","","","","","270","57","85","33","40","",""
"1021","1","rating","canvas-keyboard-response","265","481651","0.0-11.0-0.127","119","2022-4-7","9:24:8","0","19","[""Asian""]","No","Female","781898","","","","","","","","95","140","140","10","17","1",""
"null","null","clear_screen","canvas-keyboard-response","266","481912","0.0-11.0-1.127","119","2022-4-7","9:24:8","0","19","[""Asian""]","No","Female","781898","","","","","","","","95","140","140","10","17","",""
"696","1","rating","canvas-keyboard-response","267","482620","0.0-11.0-0.128","119","2022-4-7","9:24:8","0","19","[""Asian""]","No","Female","781898","","","","","","","","53","85","113","10","17","1",""
"null","null","clear_screen","canvas-keyboard-response","268","482879","0.0-11.0-1.128","119","2022-4-7","9:24:8","0","19","[""Asian""]","No","Female","781898","","","","","","","","53","85","113","10","17","",""
"1129","1","rating","canvas-keyboard-response","269","484020","0.0-11.0-0.129","119","2022-4-7","9:24:8","0","19","[""Asian""]","No","Female","781898","","","","","","","","107","140","57","10","40","1",""
"null","null","clear_screen","canvas-keyboard-response","270","484280","0.0-11.0-1.129","119","2022-4-7","9:24:8","0","19","[""Asian""]","No","Female","781898","","","","","","","","107","140","57","10","40","",""
"1104","6","rating","canvas-keyboard-response","271","485396","0.0-11.0-0.130","119","2022-4-7","9:24:8","0","19","[""Asian""]","No","Female","781898","","","","","","","","124","30","140","17","33","0",""
"null","null","clear_screen","canvas-keyboard-response","272","485654","0.0-11.0-1.130","119","2022-4-7","9:24:8","0","19","[""Asian""]","No","Female","781898","","","","","","","","124","30","140","17","33","",""
"970","7","rating","canvas-keyboard-response","273","486635","0.0-11.0-0.131","119","2022-4-7","9:24:8","0","19","[""Asian""]","No","Female","781898","","","","","","","","198","30","113","25","25","1",""
"null","null","clear_screen","canvas-keyboard-response","274","486895","0.0-11.0-1.131","119","2022-4-7","9:24:8","0","19","[""Asian""]","No","Female","781898","","","","","","","","198","30","113","25","25","",""
"2015","6","rating","canvas-keyboard-response","275","488923","0.0-11.0-0.132","119","2022-4-7","9:24:8","0","19","[""Asian""]","No","Female","781898","","","","","","","","153","85","113","17","25","1",""
"null","null","clear_screen","canvas-keyboard-response","276","489183","0.0-11.0-1.132","119","2022-4-7","9:24:8","0","19","[""Asian""]","No","Female","781898","","","","","","","","153","85","113","17","25","",""
"953","7","rating","canvas-keyboard-response","277","490148","0.0-11.0-0.133","119","2022-4-7","9:24:8","0","19","[""Asian""]","No","Female","781898","","","","","","","","230","85","30","25","40","1",""
"null","null","clear_screen","canvas-keyboard-response","278","490407","0.0-11.0-1.133","119","2022-4-7","9:24:8","0","19","[""Asian""]","No","Female","781898","","","","","","","","230","85","30","25","40","",""
"1033","3","rating","canvas-keyboard-response","279","491452","0.0-11.0-0.134","119","2022-4-7","9:24:8","0","19","[""Asian""]","No","Female","781898","","","","","","","","145","57","85","17","40","0",""
"null","null","clear_screen","canvas-keyboard-response","280","491711","0.0-11.0-1.134","119","2022-4-7","9:24:8","0","19","[""Asian""]","No","Female","781898","","","","","","","","145","57","85","17","40","",""
"1562","4","rating","canvas-keyboard-response","281","493283","0.0-11.0-0.135","119","2022-4-7","9:24:8","0","19","[""Asian""]","No","Female","781898","","","","","","","","96","140","30","10","25","0",""
"null","null","clear_screen","canvas-keyboard-response","282","493543","0.0-11.0-1.135","119","2022-4-7","9:24:8","0","19","[""Asian""]","No","Female","781898","","","","","","","","96","140","30","10","25","",""
"1456","7","rating","canvas-keyboard-response","283","495012","0.0-11.0-0.136","119","2022-4-7","9:24:8","0","19","[""Asian""]","No","Female","781898","","","","","","","","280","113","140","33","33","1",""
"null","null","clear_screen","canvas-keyboard-response","284","495274","0.0-11.0-1.136","119","2022-4-7","9:24:8","0","19","[""Asian""]","No","Female","781898","","","","","","","","280","113","140","33","33","",""
"3541","8","rating","canvas-keyboard-response","285","498827","0.0-11.0-0.137","119","2022-4-7","9:24:8","0","19","[""Asian""]","No","Female","781898","","","","","","","","261","30","57","33","40","1",""
"null","null","clear_screen","canvas-keyboard-response","286","499087","0.0-11.0-1.137","119","2022-4-7","9:24:8","0","19","[""Asian""]","No","Female","781898","","","","","","","","261","30","57","33","40","",""
"825","3","rating","canvas-keyboard-response","287","499923","0.0-11.0-0.138","119","2022-4-7","9:24:8","0","19","[""Asian""]","No","Female","781898","","","","","","","","30","57","85","10","17","1",""
"null","null","clear_screen","canvas-keyboard-response","288","500182","0.0-11.0-1.138","119","2022-4-7","9:24:8","0","19","[""Asian""]","No","Female","781898","","","","","","","","30","57","85","10","17","",""
"1314","6","rating","canvas-keyboard-response","289","501507","0.0-11.0-0.139","119","2022-4-7","9:24:8","0","19","[""Asian""]","No","Female","781898","","","","","","","","241","113","30","25","40","1",""
"null","null","clear_screen","canvas-keyboard-response","290","501766","0.0-11.0-1.139","119","2022-4-7","9:24:8","0","19","[""Asian""]","No","Female","781898","","","","","","","","241","113","30","25","40","",""
"778","7","rating","canvas-keyboard-response","291","502555","0.0-11.0-0.140","119","2022-4-7","9:24:8","0","19","[""Asian""]","No","Female","781898","","","","","","","","202","30","85","25","33","1",""
"null","null","clear_screen","canvas-keyboard-response","292","502814","0.0-11.0-1.140","119","2022-4-7","9:24:8","0","19","[""Asian""]","No","Female","781898","","","","","","","","202","30","85","25","33","",""
"882","3","rating","canvas-keyboard-response","293","503707","0.0-11.0-0.141","119","2022-4-7","9:24:8","0","19","[""Asian""]","No","Female","781898","","","","","","","","169","113","113","17","25","1",""
"null","null","clear_screen","canvas-keyboard-response","294","503966","0.0-11.0-1.141","119","2022-4-7","9:24:8","0","19","[""Asian""]","No","Female","781898","","","","","","","","169","113","113","17","25","",""
"810","7","rating","canvas-keyboard-response","295","504788","0.0-11.0-0.142","119","2022-4-7","9:24:8","0","19","[""Asian""]","No","Female","781898","","","","","","","","133","57","30","17","25","1",""
"null","null","clear_screen","canvas-keyboard-response","296","505046","0.0-11.0-1.142","119","2022-4-7","9:24:8","0","19","[""Asian""]","No","Female","781898","","","","","","","","133","57","30","17","25","",""
"1313","3","rating","canvas-keyboard-response","297","506371","0.0-11.0-0.143","119","2022-4-7","9:24:8","0","19","[""Asian""]","No","Female","781898","","","","","","","","19","30","140","10","33","1",""
"null","null","clear_screen","canvas-keyboard-response","298","506630","0.0-11.0-1.143","119","2022-4-7","9:24:8","0","19","[""Asian""]","No","Female","781898","","","","","","","","19","30","140","10","33","",""
"786","7","rating","canvas-keyboard-response","299","507427","0.0-11.0-0.144","119","2022-4-7","9:24:8","0","19","[""Asian""]","No","Female","781898","","","","","","","","255","140","140","25","40","0",""
"null","null","clear_screen","canvas-keyboard-response","300","507686","0.0-11.0-1.144","119","2022-4-7","9:24:8","0","19","[""Asian""]","No","Female","781898","","","","","","","","255","140","140","25","40","",""
"1073","7","rating","canvas-keyboard-response","301","508771","0.0-11.0-0.145","119","2022-4-7","9:24:8","0","19","[""Asian""]","No","Female","781898","","","","","","","","147","57","140","17","40","1",""
"null","null","clear_screen","canvas-keyboard-response","302","509030","0.0-11.0-1.145","119","2022-4-7","9:24:8","0","19","[""Asian""]","No","Female","781898","","","","","","","","147","57","140","17","40","",""
"1154","6","rating","canvas-keyboard-response","303","510195","0.0-11.0-0.146","119","2022-4-7","9:24:8","0","19","[""Asian""]","No","Female","781898","","","","","","","","91","140","30","10","17","1",""
"null","null","clear_screen","canvas-keyboard-response","304","510453","0.0-11.0-1.146","119","2022-4-7","9:24:8","0","19","[""Asian""]","No","Female","781898","","","","","","","","91","140","30","10","17","",""
"890","7","rating","canvas-keyboard-response","305","511355","0.0-11.0-0.147","119","2022-4-7","9:24:8","0","19","[""Asian""]","No","Female","781898","","","","","","","","201","30","57","25","33","0",""
"null","null","clear_screen","canvas-keyboard-response","306","511614","0.0-11.0-1.147","119","2022-4-7","9:24:8","0","19","[""Asian""]","No","Female","781898","","","","","","","","201","30","57","25","33","",""
"854","3","rating","canvas-keyboard-response","307","512483","0.0-11.0-0.148","119","2022-4-7","9:24:8","0","19","[""Asian""]","No","Female","781898","","","","","","","","44","57","57","10","40","0",""
"null","null","clear_screen","canvas-keyboard-response","308","512742","0.0-11.0-1.148","119","2022-4-7","9:24:8","0","19","[""Asian""]","No","Female","781898","","","","","","","","44","57","57","10","40","",""
"1001","6","rating","canvas-keyboard-response","309","513754","0.0-11.0-0.149","119","2022-4-7","9:24:8","0","19","[""Asian""]","No","Female","781898","","","","","","","","9","30","140","10","17","1",""
"null","null","clear_screen","canvas-keyboard-response","310","514014","0.0-11.0-1.149","119","2022-4-7","9:24:8","0","19","[""Asian""]","No","Female","781898","","","","","","","","9","30","140","10","17","",""
"1417","1","rating","canvas-keyboard-response","311","515443","0.0-11.0-0.150","119","2022-4-7","9:24:8","0","19","[""Asian""]","No","Female","781898","","","","","","","","97","140","57","10","25","0",""
"null","null","clear_screen","canvas-keyboard-response","312","515704","0.0-11.0-1.150","119","2022-4-7","9:24:8","0","19","[""Asian""]","No","Female","781898","","","","","","","","97","140","57","10","25","",""
"869","4","rating","canvas-keyboard-response","313","516587","0.0-11.0-0.151","119","2022-4-7","9:24:8","0","19","[""Asian""]","No","Female","781898","","","","","","","","175","113","140","17","33","0",""
"null","null","clear_screen","canvas-keyboard-response","314","516850","0.0-11.0-1.151","119","2022-4-7","9:24:8","0","19","[""Asian""]","No","Female","781898","","","","","","","","175","113","140","17","33","",""
"867","7","rating","canvas-keyboard-response","315","517731","0.0-11.0-0.152","119","2022-4-7","9:24:8","0","19","[""Asian""]","No","Female","781898","","","","","","","","150","85","30","17","25","1",""
"null","null","clear_screen","canvas-keyboard-response","316","517992","0.0-11.0-1.152","119","2022-4-7","9:24:8","0","19","[""Asian""]","No","Female","781898","","","","","","","","150","85","30","17","25","",""
"916","8","rating","canvas-keyboard-response","317","518924","0.0-11.0-0.153","119","2022-4-7","9:24:8","0","19","[""Asian""]","No","Female","781898","","","","","","","","257","30","85","33","33","0",""
"null","null","clear_screen","canvas-keyboard-response","318","519184","0.0-11.0-1.153","119","2022-4-7","9:24:8","0","19","[""Asian""]","No","Female","781898","","","","","","","","257","30","85","33","33","",""
"926","3","rating","canvas-keyboard-response","319","520124","0.0-11.0-0.154","119","2022-4-7","9:24:8","0","19","[""Asian""]","No","Female","781898","","","","","","","","162","85","85","17","40","1",""
"null","null","clear_screen","canvas-keyboard-response","320","520384","0.0-11.0-1.154","119","2022-4-7","9:24:8","0","19","[""Asian""]","No","Female","781898","","","","","","","","162","85","85","17","40","",""
"799","7","rating","canvas-keyboard-response","321","521196","0.0-11.0-0.155","119","2022-4-7","9:24:8","0","19","[""Asian""]","No","Female","781898","","","","","","","","130","57","85","17","17","1",""
"null","null","clear_screen","canvas-keyboard-response","322","521456","0.0-11.0-1.155","119","2022-4-7","9:24:8","0","19","[""Asian""]","No","Female","781898","","","","","","","","130","57","85","17","17","",""
"838","1","rating","canvas-keyboard-response","323","522307","0.0-11.0-0.156","119","2022-4-7","9:24:8","0","19","[""Asian""]","No","Female","781898","","","","","","","","88","113","85","10","40","1",""
"null","null","clear_screen","canvas-keyboard-response","324","522567","0.0-11.0-1.156","119","2022-4-7","9:24:8","0","19","[""Asian""]","No","Female","781898","","","","","","","","88","113","85","10","40","",""
"984","7","rating","canvas-keyboard-response","325","523563","0.0-11.0-0.157","119","2022-4-7","9:24:8","0","19","[""Asian""]","No","Female","781898","","","","","","","","137","57","140","17","25","0",""
"null","null","clear_screen","canvas-keyboard-response","326","523822","0.0-11.0-1.157","119","2022-4-7","9:24:8","0","19","[""Asian""]","No","Female","781898","","","","","","","","137","57","140","17","25","",""
"1074","1","rating","canvas-keyboard-response","327","524907","0.0-11.0-0.158","119","2022-4-7","9:24:8","0","19","[""Asian""]","No","Female","781898","","","","","","","","16","30","57","10","33","0",""
"null","null","clear_screen","canvas-keyboard-response","328","525166","0.0-11.0-1.158","119","2022-4-7","9:24:8","0","19","[""Asian""]","No","Female","781898","","","","","","","","16","30","57","10","33","",""
"898","6","rating","canvas-keyboard-response","329","526075","0.0-11.0-0.159","119","2022-4-7","9:24:8","0","19","[""Asian""]","No","Female","781898","","","","","","","","264","30","140","33","40","1",""
"null","null","clear_screen","canvas-keyboard-response","330","526334","0.0-11.0-1.159","119","2022-4-7","9:24:8","0","19","[""Asian""]","No","Female","781898","","","","","","","","264","30","140","33","40","",""
"966","1","rating","canvas-keyboard-response","331","527315","0.0-11.0-0.160","119","2022-4-7","9:24:8","0","19","[""Asian""]","No","Female","781898","","","","","","","","22","30","85","10","40","1",""
"null","null","clear_screen","canvas-keyboard-response","332","527575","0.0-11.0-1.160","119","2022-4-7","9:24:8","0","19","[""Asian""]","No","Female","781898","","","","","","","","22","30","85","10","40","",""
"1977","3","rating","canvas-keyboard-response","333","529563","0.0-11.0-0.161","119","2022-4-7","9:24:8","0","19","[""Asian""]","No","Female","781898","","","","","","","","35","57","85","10","25","0",""
"null","null","clear_screen","canvas-keyboard-response","334","529823","0.0-11.0-1.161","119","2022-4-7","9:24:8","0","19","[""Asian""]","No","Female","781898","","","","","","","","35","57","85","10","25","",""
"1425","1","rating","canvas-keyboard-response","335","531259","0.0-11.0-0.162","119","2022-4-7","9:24:8","0","19","[""Asian""]","No","Female","781898","","","","","","","","38","57","30","10","33","1",""
"null","null","clear_screen","canvas-keyboard-response","336","531518","0.0-11.0-1.162","119","2022-4-7","9:24:8","0","19","[""Asian""]","No","Female","781898","","","","","","","","38","57","30","10","33","",""
"954","6","rating","canvas-keyboard-response","337","532483","0.0-11.0-0.163","119","2022-4-7","9:24:8","0","19","[""Asian""]","No","Female","781898","","","","","","","","223","85","113","25","25","1",""
"null","null","clear_screen","canvas-keyboard-response","338","532741","0.0-11.0-1.163","119","2022-4-7","9:24:8","0","19","[""Asian""]","No","Female","781898","","","","","","","","223","85","113","25","25","",""
"1107","7","rating","canvas-keyboard-response","339","533859","0.0-11.0-0.164","119","2022-4-7","9:24:8","0","19","[""Asian""]","No","Female","781898","","","","","","","","220","57","85","25","40","1",""
"null","null","clear_screen","canvas-keyboard-response","340","534117","0.0-11.0-1.164","119","2022-4-7","9:24:8","0","19","[""Asian""]","No","Female","781898","","","","","","","","220","57","85","25","40","",""
"811","7","rating","canvas-keyboard-response","341","534939","0.0-11.0-0.165","119","2022-4-7","9:24:8","0","19","[""Asian""]","No","Female","781898","","","","","","","","260","30","30","33","40","1",""
"null","null","clear_screen","canvas-keyboard-response","342","535198","0.0-11.0-1.165","119","2022-4-7","9:24:8","0","19","[""Asian""]","No","Female","781898","","","","","","","","260","30","30","33","40","",""
"921","1","rating","canvas-keyboard-response","343","536131","0.0-11.0-0.166","119","2022-4-7","9:24:8","0","19","[""Asian""]","No","Female","781898","","","","","","","","43","57","30","10","40","1",""
"null","null","clear_screen","canvas-keyboard-response","344","536391","0.0-11.0-1.166","119","2022-4-7","9:24:8","0","19","[""Asian""]","No","Female","781898","","","","","","","","43","57","30","10","40","",""
"865","8","rating","canvas-keyboard-response","345","537267","0.0-11.0-0.167","119","2022-4-7","9:24:8","0","19","[""Asian""]","No","Female","781898","","","","","","","","276","85","57","33","40","1",""
"null","null","clear_screen","canvas-keyboard-response","346","537525","0.0-11.0-1.167","119","2022-4-7","9:24:8","0","19","[""Asian""]","No","Female","781898","","","","","","","","276","85","57","33","40","",""
"1433","8","rating","canvas-keyboard-response","347","538971","0.0-11.0-0.168","119","2022-4-7","9:24:8","0","19","[""Asian""]","No","Female","781898","","","","","","","","212","57","140","25","25","1",""
"null","null","clear_screen","canvas-keyboard-response","348","539230","0.0-11.0-1.168","119","2022-4-7","9:24:8","0","19","[""Asian""]","No","Female","781898","","","","","","","","212","57","140","25","25","",""
"1394","4","rating","canvas-keyboard-response","349","540635","0.0-11.0-0.169","119","2022-4-7","9:24:8","0","19","[""Asian""]","No","Female","781898","","","","","","","","155","85","30","17","33","0",""
"null","null","clear_screen","canvas-keyboard-response","350","540894","0.0-11.0-1.169","119","2022-4-7","9:24:8","0","19","[""Asian""]","No","Female","781898","","","","","","","","155","85","30","17","33","",""
"1050","1","rating","canvas-keyboard-response","351","541955","0.0-11.0-0.170","119","2022-4-7","9:24:8","0","19","[""Asian""]","No","Female","781898","","","","","","","","11","30","57","10","25","1",""
"null","null","clear_screen","canvas-keyboard-response","352","542214","0.0-11.0-1.170","119","2022-4-7","9:24:8","0","19","[""Asian""]","No","Female","781898","","","","","","","","11","30","57","10","25","",""
"794","1","rating","canvas-keyboard-response","353","543019","0.0-11.0-0.171","119","2022-4-7","9:24:8","0","19","[""Asian""]","No","Female","781898","","","","","","","","90","113","140","10","40","0",""
"null","null","clear_screen","canvas-keyboard-response","354","543278","0.0-11.0-1.171","119","2022-4-7","9:24:8","0","19","[""Asian""]","No","Female","781898","","","","","","","","90","113","140","10","40","",""
"802","7","rating","canvas-keyboard-response","355","544091","0.0-11.0-0.172","119","2022-4-7","9:24:8","0","19","[""Asian""]","No","Female","781898","","","","","","","","231","85","57","25","40","1",""
"null","null","clear_screen","canvas-keyboard-response","356","544350","0.0-11.0-1.172","119","2022-4-7","9:24:8","0","19","[""Asian""]","No","Female","781898","","","","","","","","231","85","57","25","40","",""
"1490","4","rating","canvas-keyboard-response","357","545851","0.0-11.0-0.173","119","2022-4-7","9:24:8","0","19","[""Asian""]","No","Female","781898","","","","","","","","78","113","85","10","25","0",""
"null","null","clear_screen","canvas-keyboard-response","358","546110","0.0-11.0-1.173","119","2022-4-7","9:24:8","0","19","[""Asian""]","No","Female","781898","","","","","","","","78","113","85","10","25","",""
"1129","3","rating","canvas-keyboard-response","359","547251","0.0-11.0-0.174","119","2022-4-7","9:24:8","0","19","[""Asian""]","No","Female","781898","","","","","","","","14","30","140","10","25","0",""
"null","null","clear_screen","canvas-keyboard-response","360","547510","0.0-11.0-1.174","119","2022-4-7","9:24:8","0","19","[""Asian""]","No","Female","781898","","","","","","","","14","30","140","10","25","",""
"809","3","rating","canvas-keyboard-response","361","548331","0.0-11.0-0.175","119","2022-4-7","9:24:8","0","19","[""Asian""]","No","Female","781898","","","","","","","","105","140","140","10","33","0",""
"null","null","clear_screen","canvas-keyboard-response","362","548590","0.0-11.0-1.175","119","2022-4-7","9:24:8","0","19","[""Asian""]","No","Female","781898","","","","","","","","105","140","140","10","33","",""
"1321","6","rating","canvas-keyboard-response","363","549922","0.0-11.0-0.176","119","2022-4-7","9:24:8","0","19","[""Asian""]","No","Female","781898","","","","","","","","135","57","85","17","25","1",""
"null","null","clear_screen","canvas-keyboard-response","364","550181","0.0-11.0-1.176","119","2022-4-7","9:24:8","0","19","[""Asian""]","No","Female","781898","","","","","","","","135","57","85","17","25","",""
"1331","6","rating","canvas-keyboard-response","365","551522","0.0-11.0-0.177","119","2022-4-7","9:24:8","0","19","[""Asian""]","No","Female","781898","","","","","","","","111","30","57","17","17","0",""
"null","null","clear_screen","canvas-keyboard-response","366","551782","0.0-11.0-1.177","119","2022-4-7","9:24:8","0","19","[""Asian""]","No","Female","781898","","","","","","","","111","30","57","17","17","",""
"907","7","rating","canvas-keyboard-response","367","552699","0.0-11.0-0.178","119","2022-4-7","9:24:8","0","19","[""Asian""]","No","Female","781898","","","","","","","","228","85","113","25","33","1",""
"null","null","clear_screen","canvas-keyboard-response","368","552958","0.0-11.0-1.178","119","2022-4-7","9:24:8","0","19","[""Asian""]","No","Female","781898","","","","","","","","228","85","113","25","33","",""
"1640","4","rating","canvas-keyboard-response","369","554611","0.0-11.0-0.179","119","2022-4-7","9:24:8","0","19","[""Asian""]","No","Female","781898","","","","","","","","233","85","113","25","40","0",""
"null","null","clear_screen","canvas-keyboard-response","370","554870","0.0-11.0-1.179","119","2022-4-7","9:24:8","0","19","[""Asian""]","No","Female","781898","","","","","","","","233","85","113","25","40","",""
"2410","6","rating","canvas-keyboard-response","371","557290","0.0-11.0-0.180","119","2022-4-7","9:24:8","0","19","[""Asian""]","No","Female","781898","","","","","","","","176","113","30","17","40","0",""
"null","null","clear_screen","canvas-keyboard-response","372","557550","0.0-11.0-1.180","119","2022-4-7","9:24:8","0","19","[""Asian""]","No","Female","781898","","","","","","","","176","113","30","17","40","",""
"923","6","rating","canvas-keyboard-response","373","558482","0.0-11.0-0.181","119","2022-4-7","9:24:8","0","19","[""Asian""]","No","Female","781898","","","","","","","","277","85","85","33","40","1",""
"null","null","clear_screen","canvas-keyboard-response","374","558742","0.0-11.0-1.181","119","2022-4-7","9:24:8","0","19","[""Asian""]","No","Female","781898","","","","","","","","277","85","85","33","40","",""
"778","6","rating","canvas-keyboard-response","375","559531","0.0-11.0-0.182","119","2022-4-7","9:24:8","0","19","[""Asian""]","No","Female","781898","","","","","","","","287","140","57","33","40","1",""
"null","null","clear_screen","canvas-keyboard-response","376","559790","0.0-11.0-1.182","119","2022-4-7","9:24:8","0","19","[""Asian""]","No","Female","781898","","","","","","","","287","140","57","33","40","",""
"897","6","rating","canvas-keyboard-response","377","560699","0.0-11.0-0.183","119","2022-4-7","9:24:8","0","19","[""Asian""]","No","Female","781898","","","","","","","","252","140","57","25","40","0",""
"null","null","clear_screen","canvas-keyboard-response","378","560957","0.0-11.0-1.183","119","2022-4-7","9:24:8","0","19","[""Asian""]","No","Female","781898","","","","","","","","252","140","57","25","40","",""
"1027","3","rating","canvas-keyboard-response","379","561995","0.0-11.0-0.184","119","2022-4-7","9:24:8","0","19","[""Asian""]","No","Female","781898","","","","","","","","12","30","85","10","25","0",""
"null","null","clear_screen","canvas-keyboard-response","380","562254","0.0-11.0-1.184","119","2022-4-7","9:24:8","0","19","[""Asian""]","No","Female","781898","","","","","","","","12","30","85","10","25","",""
"1033","4","rating","canvas-keyboard-response","381","563299","0.0-11.0-0.185","119","2022-4-7","9:24:8","0","19","[""Asian""]","No","Female","781898","","","","","","","","5","30","30","10","17","1",""
"null","null","clear_screen","canvas-keyboard-response","382","563558","0.0-11.0-1.185","119","2022-4-7","9:24:8","0","19","[""Asian""]","No","Female","781898","","","","","","","","5","30","30","10","17","",""
"896","4","rating","canvas-keyboard-response","383","564466","0.0-11.0-0.186","119","2022-4-7","9:24:8","0","19","[""Asian""]","No","Female","781898","","","","","","","","70","113","140","10","10","1",""
"null","null","clear_screen","canvas-keyboard-response","384","564726","0.0-11.0-1.186","119","2022-4-7","9:24:8","0","19","[""Asian""]","No","Female","781898","","","","","","","","70","113","140","10","10","",""
"1010","7","rating","canvas-keyboard-response","385","565747","0.0-11.0-0.187","119","2022-4-7","9:24:8","0","19","[""Asian""]","No","Female","781898","","","","","","","","208","30","113","25","40","0",""
"null","null","clear_screen","canvas-keyboard-response","386","566006","0.0-11.0-1.187","119","2022-4-7","9:24:8","0","19","[""Asian""]","No","Female","781898","","","","","","","","208","30","113","25","40","",""
"2657","6","rating","canvas-keyboard-response","387","568676","0.0-11.0-0.188","119","2022-4-7","9:24:8","0","19","[""Asian""]","No","Female","781898","","","","","","","","2","30","85","10","10","0",""
"null","null","clear_screen","canvas-keyboard-response","388","568935","0.0-11.0-1.188","119","2022-4-7","9:24:8","0","19","[""Asian""]","No","Female","781898","","","","","","","","2","30","85","10","10","",""
"1609","4","rating","canvas-keyboard-response","389","570554","0.0-11.0-0.189","119","2022-4-7","9:24:8","0","19","[""Asian""]","No","Female","781898","","","","","","","","254","140","113","25","40","0",""
"null","null","clear_screen","canvas-keyboard-response","390","570814","0.0-11.0-1.189","119","2022-4-7","9:24:8","0","19","[""Asian""]","No","Female","781898","","","","","","","","254","140","113","25","40","",""
"1640","7","rating","canvas-keyboard-response","391","572467","0.0-11.0-0.190","119","2022-4-7","9:24:8","0","19","[""Asian""]","No","Female","781898","","","","","","","","245","113","140","25","40","1",""
"null","null","clear_screen","canvas-keyboard-response","392","572726","0.0-11.0-1.190","119","2022-4-7","9:24:8","0","19","[""Asian""]","No","Female","781898","","","","","","","","245","113","140","25","40","",""
"801","7","rating","canvas-keyboard-response","393","573538","0.0-11.0-0.191","119","2022-4-7","9:24:8","0","19","[""Asian""]","No","Female","781898","","","","","","","","250","140","140","25","33","0",""
"null","null","clear_screen","canvas-keyboard-response","394","573798","0.0-11.0-1.191","119","2022-4-7","9:24:8","0","19","[""Asian""]","No","Female","781898","","","","","","","","250","140","140","25","33","",""
"1281","4","rating","canvas-keyboard-response","395","575090","0.0-11.0-0.192","119","2022-4-7","9:24:8","0","19","[""Asian""]","No","Female","781898","","","","","","","","62","85","85","10","33","1",""
"null","null","clear_screen","canvas-keyboard-response","396","575349","0.0-11.0-1.192","119","2022-4-7","9:24:8","0","19","[""Asian""]","No","Female","781898","","","","","","","","62","85","85","10","33","",""
"1354","7","rating","canvas-keyboard-response","397","576714","0.0-11.0-0.193","119","2022-4-7","9:24:8","0","19","[""Asian""]","No","Female","781898","","","","","","","","27","57","140","10","10","0",""
"null","null","clear_screen","canvas-keyboard-response","398","576974","0.0-11.0-1.193","119","2022-4-7","9:24:8","0","19","[""Asian""]","No","Female","781898","","","","","","","","27","57","140","10","10","",""
"1258","6","rating","canvas-keyboard-response","399","578244","0.0-11.0-0.194","119","2022-4-7","9:24:8","0","19","[""Asian""]","No","Female","781898","","","","","","","","246","140","30","25","33","1",""
"null","null","clear_screen","canvas-keyboard-response","400","578506","0.0-11.0-1.194","119","2022-4-7","9:24:8","0","19","[""Asian""]","No","Female","781898","","","","","","","","246","140","30","25","33","",""
"912","7","rating","canvas-keyboard-response","401","579434","0.0-11.0-0.195","119","2022-4-7","9:24:8","0","19","[""Asian""]","No","Female","781898","","","","","","","","166","113","30","17","25","0",""
"null","null","clear_screen","canvas-keyboard-response","402","579694","0.0-11.0-1.195","119","2022-4-7","9:24:8","0","19","[""Asian""]","No","Female","781898","","","","","","","","166","113","30","17","25","",""
"1416","3","rating","canvas-keyboard-response","403","581123","0.0-11.0-0.196","119","2022-4-7","9:24:8","0","19","[""Asian""]","No","Female","781898","","","","","","","","128","30","113","17","40","0",""
"null","null","clear_screen","canvas-keyboard-response","404","581383","0.0-11.0-1.196","119","2022-4-7","9:24:8","0","19","[""Asian""]","No","Female","781898","","","","","","","","128","30","113","17","40","",""
"1729","4","rating","canvas-keyboard-response","405","583123","0.0-11.0-0.197","119","2022-4-7","9:24:8","0","19","[""Asian""]","No","Female","781898","","","","","","","","54","85","140","10","17","1",""
"null","null","clear_screen","canvas-keyboard-response","406","583383","0.0-11.0-1.197","119","2022-4-7","9:24:8","0","19","[""Asian""]","No","Female","781898","","","","","","","","54","85","140","10","17","",""
"1585","6","rating","canvas-keyboard-response","407","584979","0.0-11.0-0.198","119","2022-4-7","9:24:8","0","19","[""Asian""]","No","Female","781898","","","","","","","","224","85","140","25","25","1",""
"null","null","clear_screen","canvas-keyboard-response","408","585238","0.0-11.0-1.198","119","2022-4-7","9:24:8","0","19","[""Asian""]","No","Female","781898","","","","","","","","224","85","140","25","25","",""
"1344","4","rating","canvas-keyboard-response","409","586595","0.0-11.0-0.199","119","2022-4-7","9:24:8","0","19","[""Asian""]","No","Female","781898","","","","","","","","79","113","113","10","25","0",""
"null","null","clear_screen","canvas-keyboard-response","410","586856","0.0-11.0-1.199","119","2022-4-7","9:24:8","0","19","[""Asian""]","No","Female","781898","","","","","","","","79","113","113","10","25","",""
"1223","7","rating","canvas-keyboard-response","411","588091","0.0-11.0-0.200","119","2022-4-7","9:24:8","0","19","[""Asian""]","No","Female","781898","","","","","","","","293","30","113","40","40","0",""
"null","null","clear_screen","canvas-keyboard-response","412","588350","0.0-11.0-1.200","119","2022-4-7","9:24:8","0","19","[""Asian""]","No","Female","781898","","","","","","","","293","30","113","40","40","",""
"824","1","rating","canvas-keyboard-response","413","589187","0.0-11.0-0.201","119","2022-4-7","9:24:8","0","19","[""Asian""]","No","Female","781898","","","","","","","","84","113","113","10","33","1",""
"null","null","clear_screen","canvas-keyboard-response","414","589446","0.0-11.0-1.201","119","2022-4-7","9:24:8","0","19","[""Asian""]","No","Female","781898","","","","","","","","84","113","113","10","33","",""
"1096","4","rating","canvas-keyboard-response","415","590555","0.0-11.0-0.202","119","2022-4-7","9:24:8","0","19","[""Asian""]","No","Female","781898","","","","","","","","71","113","30","10","17","1",""
"null","null","clear_screen","canvas-keyboard-response","416","590813","0.0-11.0-1.202","119","2022-4-7","9:24:8","0","19","[""Asian""]","No","Female","781898","","","","","","","","71","113","30","10","17","",""
"969","1","rating","canvas-keyboard-response","417","591795","0.0-11.0-0.203","119","2022-4-7","9:24:8","0","19","[""Asian""]","No","Female","781898","","","","","","","","160","85","30","17","40","0",""
"null","null","clear_screen","canvas-keyboard-response","418","592054","0.0-11.0-1.203","119","2022-4-7","9:24:8","0","19","[""Asian""]","No","Female","781898","","","","","","","","160","85","30","17","40","",""
"1113","7","rating","canvas-keyboard-response","419","593179","0.0-11.0-0.204","119","2022-4-7","9:24:8","0","19","[""Asian""]","No","Female","781898","","","","","","","","170","113","140","17","25","1",""
"null","null","clear_screen","canvas-keyboard-response","420","593439","0.0-11.0-1.204","119","2022-4-7","9:24:8","0","19","[""Asian""]","No","Female","781898","","","","","","","","170","113","140","17","25","",""
"1104","6","rating","canvas-keyboard-response","421","594555","0.0-11.0-0.205","119","2022-4-7","9:24:8","0","19","[""Asian""]","No","Female","781898","","","","","","","","203","30","113","25","33","1",""
"null","null","clear_screen","canvas-keyboard-response","422","594814","0.0-11.0-1.205","119","2022-4-7","9:24:8","0","19","[""Asian""]","No","Female","781898","","","","","","","","203","30","113","25","33","",""
"961","7","rating","canvas-keyboard-response","423","595786","0.0-11.0-0.206","119","2022-4-7","9:24:8","0","19","[""Asian""]","No","Female","781898","","","","","","","","57","85","85","10","25","0",""
"null","null","clear_screen","canvas-keyboard-response","424","596045","0.0-11.0-1.206","119","2022-4-7","9:24:8","0","19","[""Asian""]","No","Female","781898","","","","","","","","57","85","85","10","25","",""
"723","7","rating","canvas-keyboard-response","425","596779","0.0-11.0-0.207","119","2022-4-7","9:24:8","0","19","[""Asian""]","No","Female","781898","","","","","","","","149","85","140","17","17","0",""
"null","null","clear_screen","canvas-keyboard-response","426","597038","0.0-11.0-1.207","119","2022-4-7","9:24:8","0","19","[""Asian""]","No","Female","781898","","","","","","","","149","85","140","17","17","",""
"712","7","rating","canvas-keyboard-response","427","597763","0.0-11.0-0.208","119","2022-4-7","9:24:8","0","19","[""Asian""]","No","Female","781898","","","","","","","","298","85","113","40","40","0",""
"null","null","clear_screen","canvas-keyboard-response","428","598022","0.0-11.0-1.208","119","2022-4-7","9:24:8","0","19","[""Asian""]","No","Female","781898","","","","","","","","298","85","113","40","40","",""
"880","8","rating","canvas-keyboard-response","429","598915","0.0-11.0-0.209","119","2022-4-7","9:24:8","0","19","[""Asian""]","No","Female","781898","","","","","","","","85","113","140","10","33","0",""
"null","null","clear_screen","canvas-keyboard-response","430","599174","0.0-11.0-1.209","119","2022-4-7","9:24:8","0","19","[""Asian""]","No","Female","781898","","","","","","","","85","113","140","10","33","",""
"808","7","rating","canvas-keyboard-response","431","599995","0.0-11.0-0.210","119","2022-4-7","9:24:8","0","19","[""Asian""]","No","Female","781898","","","","","","","","271","57","113","33","40","1",""
"null","null","clear_screen","canvas-keyboard-response","432","600253","0.0-11.0-1.210","119","2022-4-7","9:24:8","0","19","[""Asian""]","No","Female","781898","","","","","","","","271","57","113","33","40","",""
"736","7","rating","canvas-keyboard-response","433","601003","0.0-11.0-0.211","119","2022-4-7","9:24:8","0","19","[""Asian""]","No","Female","781898","","","","","","","","197","30","85","25","25","0",""
"null","null","clear_screen","canvas-keyboard-response","434","601261","0.0-11.0-1.211","119","2022-4-7","9:24:8","0","19","[""Asian""]","No","Female","781898","","","","","","","","197","30","85","25","25","",""
"875","8","rating","canvas-keyboard-response","435","602146","0.0-11.0-0.212","119","2022-4-7","9:24:8","0","19","[""Asian""]","No","Female","781898","","","","","","","","141","57","113","17","33","0",""
"null","null","clear_screen","canvas-keyboard-response","436","602406","0.0-11.0-1.212","119","2022-4-7","9:24:8","0","19","[""Asian""]","No","Female","781898","","","","","","","","141","57","113","17","33","",""
"945","4","rating","canvas-keyboard-response","437","603362","0.0-11.0-0.213","119","2022-4-7","9:24:8","0","19","[""Asian""]","No","Female","781898","","","","","","","","101","140","30","10","33","1",""
"null","null","clear_screen","canvas-keyboard-response","438","603622","0.0-11.0-1.213","119","2022-4-7","9:24:8","0","19","[""Asian""]","No","Female","781898","","","","","","","","101","140","30","10","33","",""
"1201","7","rating","canvas-keyboard-response","439","604834","0.0-11.0-0.214","119","2022-4-7","9:24:8","0","19","[""Asian""]","No","Female","781898","","","","","","","","265","57","85","33","33","1",""
"null","null","clear_screen","canvas-keyboard-response","440","605094","0.0-11.0-1.214","119","2022-4-7","9:24:8","0","19","[""Asian""]","No","Female","781898","","","","","","","","265","57","85","33","33","",""
"962","7","rating","canvas-keyboard-response","441","606066","0.0-11.0-0.215","119","2022-4-7","9:24:8","0","19","[""Asian""]","No","Female","781898","","","","","","","","235","113","140","25","25","0",""
"null","null","clear_screen","canvas-keyboard-response","442","606325","0.0-11.0-1.215","119","2022-4-7","9:24:8","0","19","[""Asian""]","No","Female","781898","","","","","","","","235","113","140","25","25","",""
"769","7","rating","canvas-keyboard-response","443","607106","0.0-11.0-0.216","119","2022-4-7","9:24:8","0","19","[""Asian""]","No","Female","781898","","","","","","","","278","85","113","33","40","1",""
"null","null","clear_screen","canvas-keyboard-response","444","607365","0.0-11.0-1.216","119","2022-4-7","9:24:8","0","19","[""Asian""]","No","Female","781898","","","","","","","","278","85","113","33","40","",""
"722","7","rating","canvas-keyboard-response","445","608099","0.0-11.0-0.217","119","2022-4-7","9:24:8","0","19","[""Asian""]","No","Female","781898","","","","","","","","240","113","140","25","33","1",""
"null","null","clear_screen","canvas-keyboard-response","446","608358","0.0-11.0-1.217","119","2022-4-7","9:24:8","0","19","[""Asian""]","No","Female","781898","","","","","","","","240","113","140","25","33","",""
"1072","3","rating","canvas-keyboard-response","447","609443","0.0-11.0-0.218","119","2022-4-7","9:24:8","0","19","[""Asian""]","No","Female","781898","","","","","","","","63","85","113","10","33","1",""
"null","null","clear_screen","canvas-keyboard-response","448","609702","0.0-11.0-1.218","119","2022-4-7","9:24:8","0","19","[""Asian""]","No","Female","781898","","","","","","","","63","85","113","10","33","",""
"1208","1","rating","canvas-keyboard-response","449","610922","0.0-11.0-0.219","119","2022-4-7","9:24:8","0","19","[""Asian""]","No","Female","781898","","","","","","","","50","85","30","10","17","1",""
"null","null","clear_screen","canvas-keyboard-response","450","611181","0.0-11.0-1.219","119","2022-4-7","9:24:8","0","19","[""Asian""]","No","Female","781898","","","","","","","","50","85","30","10","17","",""
"1482","3","rating","canvas-keyboard-response","451","612674","0.0-11.0-0.220","119","2022-4-7","9:24:8","0","19","[""Asian""]","No","Female","781898","","","","","","","","182","140","57","17","25","1",""
"null","null","clear_screen","canvas-keyboard-response","452","612933","0.0-11.0-1.220","119","2022-4-7","9:24:8","0","19","[""Asian""]","No","Female","781898","","","","","","","","182","140","57","17","25","",""
"1290","7","rating","canvas-keyboard-response","453","614235","0.0-11.0-0.221","119","2022-4-7","9:24:8","0","19","[""Asian""]","No","Female","781898","","","","","","","","165","113","140","17","17","1",""
"null","null","clear_screen","canvas-keyboard-response","454","614494","0.0-11.0-1.221","119","2022-4-7","9:24:8","0","19","[""Asian""]","No","Female","781898","","","","","","","","165","113","140","17","17","",""
"723","8","rating","canvas-keyboard-response","455","615226","0.0-11.0-0.222","119","2022-4-7","9:24:8","0","19","[""Asian""]","No","Female","781898","","","","","","","","268","57","30","33","40","0",""
"null","null","clear_screen","canvas-keyboard-response","456","615487","0.0-11.0-1.222","119","2022-4-7","9:24:8","0","19","[""Asian""]","No","Female","781898","","","","","","","","268","57","30","33","40","",""
"1035","7","rating","canvas-keyboard-response","457","616539","0.0-11.0-0.223","119","2022-4-7","9:24:8","0","19","[""Asian""]","No","Female","781898","","","","","","","","114","30","140","17","17","1",""
"null","null","clear_screen","canvas-keyboard-response","458","616800","0.0-11.0-1.223","119","2022-4-7","9:24:8","0","19","[""Asian""]","No","Female","781898","","","","","","","","114","30","140","17","17","",""
"1062","4","rating","canvas-keyboard-response","459","617874","0.0-11.0-0.224","119","2022-4-7","9:24:8","0","19","[""Asian""]","No","Female","781898","","","","","","","","243","113","85","25","40","0",""
"null","null","clear_screen","canvas-keyboard-response","460","618135","0.0-11.0-1.224","119","2022-4-7","9:24:8","0","19","[""Asian""]","No","Female","781898","","","","","","","","243","113","85","25","40","",""
"774","7","rating","canvas-keyboard-response","461","618923","0.0-11.0-0.225","119","2022-4-7","9:24:8","0","19","[""Asian""]","No","Female","781898","","","","","","","","284","113","113","33","40","0",""
"null","null","clear_screen","canvas-keyboard-response","462","619182","0.0-11.0-1.225","119","2022-4-7","9:24:8","0","19","[""Asian""]","No","Female","781898","","","","","","","","284","113","113","33","40","",""
"1056","3","rating","canvas-keyboard-response","463","620251","0.0-11.0-0.226","119","2022-4-7","9:24:8","0","19","[""Asian""]","No","Female","781898","","","","","","","","193","140","85","17","40","1",""
"null","null","clear_screen","canvas-keyboard-response","464","620510","0.0-11.0-1.226","119","2022-4-7","9:24:8","0","19","[""Asian""]","No","Female","781898","","","","","","","","193","140","85","17","40","",""
"1000","4","rating","canvas-keyboard-response","465","621523","0.0-11.0-0.227","119","2022-4-7","9:24:8","0","19","[""Asian""]","No","Female","781898","","","","","","","","237","113","57","25","33","0",""
"null","null","clear_screen","canvas-keyboard-response","466","621783","0.0-11.0-1.227","119","2022-4-7","9:24:8","0","19","[""Asian""]","No","Female","781898","","","","","","","","237","113","57","25","33","",""
"990","7","rating","canvas-keyboard-response","467","622787","0.0-11.0-0.228","119","2022-4-7","9:24:8","0","19","[""Asian""]","No","Female","781898","","","","","","","","296","57","113","40","40","0",""
"null","null","clear_screen","canvas-keyboard-response","468","623046","0.0-11.0-1.228","119","2022-4-7","9:24:8","0","19","[""Asian""]","No","Female","781898","","","","","","","","296","57","113","40","40","",""
"1736","4","rating","canvas-keyboard-response","469","624794","0.0-11.0-0.229","119","2022-4-7","9:24:8","0","19","[""Asian""]","No","Female","781898","","","","","","","","136","57","113","17","25","1",""
"null","null","clear_screen","canvas-keyboard-response","470","625054","0.0-11.0-1.229","119","2022-4-7","9:24:8","0","19","[""Asian""]","No","Female","781898","","","","","","","","136","57","113","17","25","",""
"1050","6","rating","canvas-keyboard-response","471","626115","0.0-11.0-0.230","119","2022-4-7","9:24:8","0","19","[""Asian""]","No","Female","781898","","","","","","","","1","30","57","10","10","0",""
"null","null","clear_screen","canvas-keyboard-response","472","626375","0.0-11.0-1.230","119","2022-4-7","9:24:8","0","19","[""Asian""]","No","Female","781898","","","","","","","","1","30","57","10","10","",""
