"rt","response","trialType","trial_type","trial_index","time_elapsed","internal_node_id","sub_n","date","time","leftRight","age","race","ethnicity","gender","exp_duration","success","timeout","failed_images","failed_audio","failed_video","stimulus","view_history","trialID","radius_a","radius_b","angle_a","angle_b","lrCond","question_order"
"3847008","{""response"":""117""}","enter-sub-number","survey-html-form","0","3847029","0.0-0.0","117","2022-4-4","10:45:58","1","19","[""White""]","No","Female","4805897","","","","","","","","","","","","","",""
"","","","fullscreen","1","3851290","0.0-1.0","117","2022-4-4","10:45:58","1","19","[""White""]","No","Female","4805897","true","","","","","","","","","","","","",""
"","","","preload","2","3851304","0.0-2.0","117","2022-4-4","10:45:58","1","19","[""White""]","No","Female","4805897","true","false","[]","[]","[]","","","","","","","","",""
"92066","0","","html-button-response","3","3943371","0.0-3.0","117","2022-4-4","10:45:58","1","19","[""White""]","No","Female","4805897","","","","","","<div style= ""font-size:25px;"" <p> <strong> Welcome to the experiment! </strong><br> <p style=""color:#8B0000; font-size:25px;""><strong> Please do NOT exit full screen until you are done with the experiment. </strong> </p><p style=""font-size:25px;color:#8B0000;""> <strong> The experiment will be canceled and your data will be lost <br> if you try to go back or refresh the page at any point during the experiment.</strong> </p><br><p> <strong> Thanks in advance for your contribution to our research! </strong></p>","","","","","","","",""
"26797","","","instructions","4","3970170","0.0-4.0","117","2022-4-4","10:45:58","1","19","[""White""]","No","Female","4805897","","","","","","","[{""page_index"":0,""viewing_time"":13004},{""page_index"":1,""viewing_time"":7353},{""page_index"":2,""viewing_time"":6440}]","","","","","","",""
"null","null","presentPop","canvas-keyboard-response","5","3986183","0.0-5.0","117","2022-4-4","10:45:58","1","19","[""White""]","No","Female","4805897","","","","","","","","","","","","","",""
"null","null","clear_screen","canvas-keyboard-response","6","3986943","0.0-6.0","117","2022-4-4","10:45:58","1","19","[""White""]","No","Female","4805897","","","","","","","","","","","","","",""
"3418","","","instructions","7","3990361","0.0-7.0","117","2022-4-4","10:45:58","1","19","[""White""]","No","Female","4805897","","","","","","","[{""page_index"":0,""viewing_time"":3418}]","","","","","","",""
"null","null","presentPop","canvas-keyboard-response","8","4006375","0.0-8.0","117","2022-4-4","10:45:58","1","19","[""White""]","No","Female","4805897","","","","","","","","","","","","","",""
"null","null","clear_screen","canvas-keyboard-response","9","4007136","0.0-9.0","117","2022-4-4","10:45:58","1","19","[""White""]","No","Female","4805897","","","","","","","","","","","","","",""
"2575","","","instructions","10","4009714","0.0-10.0","117","2022-4-4","10:45:58","1","19","[""White""]","No","Female","4805897","","","","","","","[{""page_index"":0,""viewing_time"":1447},{""page_index"":1,""viewing_time"":1128}]","","","","","","",""
"1555","1","rating","canvas-keyboard-response","11","4012281","0.0-11.0-0.0","117","2022-4-4","10:45:58","1","19","[""White""]","No","Female","4805897","","","","","","","","182","140","57","17","25","1",""
"null","null","clear_screen","canvas-keyboard-response","12","4012542","0.0-11.0-1.0","117","2022-4-4","10:45:58","1","19","[""White""]","No","Female","4805897","","","","","","","","182","140","57","17","25","",""
"2664","4","rating","canvas-keyboard-response","13","4015217","0.0-11.0-0.1","117","2022-4-4","10:45:58","1","19","[""White""]","No","Female","4805897","","","","","","","","257","30","85","33","33","0",""
"null","null","clear_screen","canvas-keyboard-response","14","4015478","0.0-11.0-1.1","117","2022-4-4","10:45:58","1","19","[""White""]","No","Female","4805897","","","","","","","","257","30","85","33","33","",""
"1933","3","rating","canvas-keyboard-response","15","4017426","0.0-11.0-0.2","117","2022-4-4","10:45:58","1","19","[""White""]","No","Female","4805897","","","","","","","","197","30","85","25","25","0",""
"null","null","clear_screen","canvas-keyboard-response","16","4017689","0.0-11.0-1.2","117","2022-4-4","10:45:58","1","19","[""White""]","No","Female","4805897","","","","","","","","197","30","85","25","25","",""
"2293","1","rating","canvas-keyboard-response","17","4019993","0.0-11.0-0.3","117","2022-4-4","10:45:58","1","19","[""White""]","No","Female","4805897","","","","","","","","188","140","85","17","33","0",""
"null","null","clear_screen","canvas-keyboard-response","18","4020255","0.0-11.0-1.3","117","2022-4-4","10:45:58","1","19","[""White""]","No","Female","4805897","","","","","","","","188","140","85","17","33","",""
"2710","3","rating","canvas-keyboard-response","19","4022977","0.0-11.0-0.4","117","2022-4-4","10:45:58","1","19","[""White""]","No","Female","4805897","","","","","","","","6","30","57","10","17","0",""
"null","null","clear_screen","canvas-keyboard-response","20","4023235","0.0-11.0-1.4","117","2022-4-4","10:45:58","1","19","[""White""]","No","Female","4805897","","","","","","","","6","30","57","10","17","",""
"4155","7","rating","canvas-keyboard-response","21","4027401","0.0-11.0-0.5","117","2022-4-4","10:45:58","1","19","[""White""]","No","Female","4805897","","","","","","","","300","113","140","40","40","1",""
"null","null","clear_screen","canvas-keyboard-response","22","4027659","0.0-11.0-1.5","117","2022-4-4","10:45:58","1","19","[""White""]","No","Female","4805897","","","","","","","","300","113","140","40","40","",""
"4160","6","rating","canvas-keyboard-response","23","4031833","0.0-11.0-0.6","117","2022-4-4","10:45:58","1","19","[""White""]","No","Female","4805897","","","","","","","","1","30","57","10","10","0",""
"null","null","clear_screen","canvas-keyboard-response","24","4032094","0.0-11.0-1.6","117","2022-4-4","10:45:58","1","19","[""White""]","No","Female","4805897","","","","","","","","1","30","57","10","10","",""
"3208","6","rating","canvas-keyboard-response","25","4035314","0.0-11.0-0.7","117","2022-4-4","10:45:58","1","19","[""White""]","No","Female","4805897","","","","","","","","174","113","113","17","33","1",""
"null","null","clear_screen","canvas-keyboard-response","26","4035572","0.0-11.0-1.7","117","2022-4-4","10:45:58","1","19","[""White""]","No","Female","4805897","","","","","","","","174","113","113","17","33","",""
"2643","8","rating","canvas-keyboard-response","27","4038225","0.0-11.0-0.8","117","2022-4-4","10:45:58","1","19","[""White""]","No","Female","4805897","","","","","","","","270","57","85","33","40","1",""
"null","null","clear_screen","canvas-keyboard-response","28","4038484","0.0-11.0-1.8","117","2022-4-4","10:45:58","1","19","[""White""]","No","Female","4805897","","","","","","","","270","57","85","33","40","",""
"2178","5","rating","canvas-keyboard-response","29","4040673","0.0-11.0-0.9","117","2022-4-4","10:45:58","1","19","[""White""]","No","Female","4805897","","","","","","","","288","140","85","33","40","0",""
"null","null","clear_screen","canvas-keyboard-response","30","4040932","0.0-11.0-1.9","117","2022-4-4","10:45:58","1","19","[""White""]","No","Female","4805897","","","","","","","","288","140","85","33","40","",""
"1415","1","rating","canvas-keyboard-response","31","4042362","0.0-11.0-0.10","117","2022-4-4","10:45:58","1","19","[""White""]","No","Female","4805897","","","","","","","","91","140","30","10","17","1",""
"null","null","clear_screen","canvas-keyboard-response","32","4042621","0.0-11.0-1.10","117","2022-4-4","10:45:58","1","19","[""White""]","No","Female","4805897","","","","","","","","91","140","30","10","17","",""
"1028","1","rating","canvas-keyboard-response","33","4043656","0.0-11.0-0.11","117","2022-4-4","10:45:58","1","19","[""White""]","No","Female","4805897","","","","","","","","229","85","140","25","33","0",""
"null","null","clear_screen","canvas-keyboard-response","34","4043916","0.0-11.0-1.11","117","2022-4-4","10:45:58","1","19","[""White""]","No","Female","4805897","","","","","","","","229","85","140","25","33","",""
"2320","6","rating","canvas-keyboard-response","35","4046249","0.0-11.0-0.12","117","2022-4-4","10:45:58","1","19","[""White""]","No","Female","4805897","","","","","","","","152","85","85","17","25","1",""
"null","null","clear_screen","canvas-keyboard-response","36","4046507","0.0-11.0-1.12","117","2022-4-4","10:45:58","1","19","[""White""]","No","Female","4805897","","","","","","","","152","85","85","17","25","",""
"1419","6","rating","canvas-keyboard-response","37","4047937","0.0-11.0-0.13","117","2022-4-4","10:45:58","1","19","[""White""]","No","Female","4805897","","","","","","","","162","85","85","17","40","0",""
"null","null","clear_screen","canvas-keyboard-response","38","4048194","0.0-11.0-1.13","117","2022-4-4","10:45:58","1","19","[""White""]","No","Female","4805897","","","","","","","","162","85","85","17","40","",""
"4867","5","rating","canvas-keyboard-response","39","4053072","0.0-11.0-0.14","117","2022-4-4","10:45:58","1","19","[""White""]","No","Female","4805897","","","","","","","","206","30","57","25","40","1",""
"null","null","clear_screen","canvas-keyboard-response","40","4053334","0.0-11.0-1.14","117","2022-4-4","10:45:58","1","19","[""White""]","No","Female","4805897","","","","","","","","206","30","57","25","40","",""
"1445","1","rating","canvas-keyboard-response","41","4054792","0.0-11.0-0.15","117","2022-4-4","10:45:58","1","19","[""White""]","No","Female","4805897","","","","","","","","259","30","140","33","33","1",""
"null","null","clear_screen","canvas-keyboard-response","42","4055053","0.0-11.0-1.15","117","2022-4-4","10:45:58","1","19","[""White""]","No","Female","4805897","","","","","","","","259","30","140","33","33","",""
"3104","1","rating","canvas-keyboard-response","43","4058169","0.0-11.0-0.16","117","2022-4-4","10:45:58","1","19","[""White""]","No","Female","4805897","","","","","","","","82","113","57","10","33","0",""
"null","null","clear_screen","canvas-keyboard-response","44","4058428","0.0-11.0-1.16","117","2022-4-4","10:45:58","1","19","[""White""]","No","Female","4805897","","","","","","","","82","113","57","10","33","",""
"3619","5","rating","canvas-keyboard-response","45","4062056","0.0-11.0-0.17","117","2022-4-4","10:45:58","1","19","[""White""]","No","Female","4805897","","","","","","","","216","57","113","25","33","1",""
"null","null","clear_screen","canvas-keyboard-response","46","4062318","0.0-11.0-1.17","117","2022-4-4","10:45:58","1","19","[""White""]","No","Female","4805897","","","","","","","","216","57","113","25","33","",""
"1260","1","rating","canvas-keyboard-response","47","4063594","0.0-11.0-0.18","117","2022-4-4","10:45:58","1","19","[""White""]","No","Female","4805897","","","","","","","","17","30","85","10","33","1",""
"null","null","clear_screen","canvas-keyboard-response","48","4063859","0.0-11.0-1.18","117","2022-4-4","10:45:58","1","19","[""White""]","No","Female","4805897","","","","","","","","17","30","85","10","33","",""
"963","1","rating","canvas-keyboard-response","49","4064833","0.0-11.0-0.19","117","2022-4-4","10:45:58","1","19","[""White""]","No","Female","4805897","","","","","","","","211","57","113","25","25","0",""
"null","null","clear_screen","canvas-keyboard-response","50","4065092","0.0-11.0-1.19","117","2022-4-4","10:45:58","1","19","[""White""]","No","Female","4805897","","","","","","","","211","57","113","25","25","",""
"2779","6","rating","canvas-keyboard-response","51","4067881","0.0-11.0-0.20","117","2022-4-4","10:45:58","1","19","[""White""]","No","Female","4805897","","","","","","","","57","85","85","10","25","1",""
"null","null","clear_screen","canvas-keyboard-response","52","4068143","0.0-11.0-1.20","117","2022-4-4","10:45:58","1","19","[""White""]","No","Female","4805897","","","","","","","","57","85","85","10","25","",""
"9428","2","rating","canvas-keyboard-response","53","4077586","0.0-11.0-0.21","117","2022-4-4","10:45:58","1","19","[""White""]","No","Female","4805897","","","","","","","","143","57","30","17","40","1",""
"null","null","clear_screen","canvas-keyboard-response","54","4077847","0.0-11.0-1.21","117","2022-4-4","10:45:58","1","19","[""White""]","No","Female","4805897","","","","","","","","143","57","30","17","40","",""
"1919","6","rating","canvas-keyboard-response","55","4079778","0.0-11.0-0.22","117","2022-4-4","10:45:58","1","19","[""White""]","No","Female","4805897","","","","","","","","130","57","85","17","17","1",""
"null","null","clear_screen","canvas-keyboard-response","56","4080034","0.0-11.0-1.22","117","2022-4-4","10:45:58","1","19","[""White""]","No","Female","4805897","","","","","","","","130","57","85","17","17","",""
"5528","4","rating","canvas-keyboard-response","57","4085578","0.0-11.0-0.23","117","2022-4-4","10:45:58","1","19","[""White""]","No","Female","4805897","","","","","","","","121","30","57","17","33","1",""
"null","null","clear_screen","canvas-keyboard-response","58","4085839","0.0-11.0-1.23","117","2022-4-4","10:45:58","1","19","[""White""]","No","Female","4805897","","","","","","","","121","30","57","17","33","",""
"2093","3","rating","canvas-keyboard-response","59","4087945","0.0-11.0-0.24","117","2022-4-4","10:45:58","1","19","[""White""]","No","Female","4805897","","","","","","","","63","85","113","10","33","1",""
"null","null","clear_screen","canvas-keyboard-response","60","4088204","0.0-11.0-1.24","117","2022-4-4","10:45:58","1","19","[""White""]","No","Female","4805897","","","","","","","","63","85","113","10","33","",""
"2970","6","rating","canvas-keyboard-response","61","4091185","0.0-11.0-0.25","117","2022-4-4","10:45:58","1","19","[""White""]","No","Female","4805897","","","","","","","","289","140","113","33","40","0",""
"null","null","clear_screen","canvas-keyboard-response","62","4091444","0.0-11.0-1.25","117","2022-4-4","10:45:58","1","19","[""White""]","No","Female","4805897","","","","","","","","289","140","113","33","40","",""
"1946","6","rating","canvas-keyboard-response","63","4093401","0.0-11.0-0.26","117","2022-4-4","10:45:58","1","19","[""White""]","No","Female","4805897","","","","","","","","56","85","57","10","25","0",""
"null","null","clear_screen","canvas-keyboard-response","64","4093661","0.0-11.0-1.26","117","2022-4-4","10:45:58","1","19","[""White""]","No","Female","4805897","","","","","","","","56","85","57","10","25","",""
"2608","5","rating","canvas-keyboard-response","65","4096281","0.0-11.0-0.27","117","2022-4-4","10:45:58","1","19","[""White""]","No","Female","4805897","","","","","","","","148","85","113","17","17","1",""
"null","null","clear_screen","canvas-keyboard-response","66","4096540","0.0-11.0-1.27","117","2022-4-4","10:45:58","1","19","[""White""]","No","Female","4805897","","","","","","","","148","85","113","17","17","",""
"1683","3","rating","canvas-keyboard-response","67","4098233","0.0-11.0-0.28","117","2022-4-4","10:45:58","1","19","[""White""]","No","Female","4805897","","","","","","","","46","57","113","10","40","1",""
"null","null","clear_screen","canvas-keyboard-response","68","4098495","0.0-11.0-1.28","117","2022-4-4","10:45:58","1","19","[""White""]","No","Female","4805897","","","","","","","","46","57","113","10","40","",""
"5048","1","rating","canvas-keyboard-response","69","4103553","0.0-11.0-0.29","117","2022-4-4","10:45:58","1","19","[""White""]","No","Female","4805897","","","","","","","","31","57","113","10","17","1",""
"null","null","clear_screen","canvas-keyboard-response","70","4103814","0.0-11.0-1.29","117","2022-4-4","10:45:58","1","19","[""White""]","No","Female","4805897","","","","","","","","31","57","113","10","17","",""
"843","1","rating","canvas-keyboard-response","71","4104673","0.0-11.0-0.30","117","2022-4-4","10:45:58","1","19","[""White""]","No","Female","4805897","","","","","","","","225","85","30","25","33","1",""
"null","null","clear_screen","canvas-keyboard-response","72","4104931","0.0-11.0-1.30","117","2022-4-4","10:45:58","1","19","[""White""]","No","Female","4805897","","","","","","","","225","85","30","25","33","",""
"3328","9","rating","canvas-keyboard-response","73","4108272","0.0-11.0-0.31","117","2022-4-4","10:45:58","1","19","[""White""]","No","Female","4805897","","","","","","","","269","57","57","33","40","0",""
"null","null","clear_screen","canvas-keyboard-response","74","4108534","0.0-11.0-1.31","117","2022-4-4","10:45:58","1","19","[""White""]","No","Female","4805897","","","","","","","","269","57","57","33","40","",""
"998","1","rating","canvas-keyboard-response","75","4109544","0.0-11.0-0.32","117","2022-4-4","10:45:58","1","19","[""White""]","No","Female","4805897","","","","","","","","20","30","30","10","40","1",""
"null","null","clear_screen","canvas-keyboard-response","76","4109805","0.0-11.0-1.32","117","2022-4-4","10:45:58","1","19","[""White""]","No","Female","4805897","","","","","","","","20","30","30","10","40","",""
"2028","7","rating","canvas-keyboard-response","77","4111849","0.0-11.0-0.33","117","2022-4-4","10:45:58","1","19","[""White""]","No","Female","4805897","","","","","","","","249","140","113","25","33","0",""
"null","null","clear_screen","canvas-keyboard-response","78","4112110","0.0-11.0-1.33","117","2022-4-4","10:45:58","1","19","[""White""]","No","Female","4805897","","","","","","","","249","140","113","25","33","",""
"1373","5","rating","canvas-keyboard-response","79","4113496","0.0-11.0-0.34","117","2022-4-4","10:45:58","1","19","[""White""]","No","Female","4805897","","","","","","","","238","113","85","25","33","1",""
"null","null","clear_screen","canvas-keyboard-response","80","4113756","0.0-11.0-1.34","117","2022-4-4","10:45:58","1","19","[""White""]","No","Female","4805897","","","","","","","","238","113","85","25","33","",""
"3955","1","rating","canvas-keyboard-response","81","4117720","0.0-11.0-0.35","117","2022-4-4","10:45:58","1","19","[""White""]","No","Female","4805897","","","","","","","","294","30","140","40","40","0",""
"null","null","clear_screen","canvas-keyboard-response","82","4117979","0.0-11.0-1.35","117","2022-4-4","10:45:58","1","19","[""White""]","No","Female","4805897","","","","","","","","294","30","140","40","40","",""
"2411","3","rating","canvas-keyboard-response","83","4120401","0.0-11.0-0.36","117","2022-4-4","10:45:58","1","19","[""White""]","No","Female","4805897","","","","","","","","45","57","85","10","40","1",""
"null","null","clear_screen","canvas-keyboard-response","84","4120660","0.0-11.0-1.36","117","2022-4-4","10:45:58","1","19","[""White""]","No","Female","4805897","","","","","","","","45","57","85","10","40","",""
"1143","1","rating","canvas-keyboard-response","85","4121816","0.0-11.0-0.37","117","2022-4-4","10:45:58","1","19","[""White""]","No","Female","4805897","","","","","","","","49","85","140","10","10","1",""
"null","null","clear_screen","canvas-keyboard-response","86","4122078","0.0-11.0-1.37","117","2022-4-4","10:45:58","1","19","[""White""]","No","Female","4805897","","","","","","","","49","85","140","10","10","",""
"1836","5","rating","canvas-keyboard-response","87","4123928","0.0-11.0-0.38","117","2022-4-4","10:45:58","1","19","[""White""]","No","Female","4805897","","","","","","","","25","57","85","10","10","1",""
"null","null","clear_screen","canvas-keyboard-response","88","4124187","0.0-11.0-1.38","117","2022-4-4","10:45:58","1","19","[""White""]","No","Female","4805897","","","","","","","","25","57","85","10","10","",""
"2256","4","rating","canvas-keyboard-response","89","4126456","0.0-11.0-0.39","117","2022-4-4","10:45:58","1","19","[""White""]","No","Female","4805897","","","","","","","","103","140","85","10","33","0",""
"null","null","clear_screen","canvas-keyboard-response","90","4126717","0.0-11.0-1.39","117","2022-4-4","10:45:58","1","19","[""White""]","No","Female","4805897","","","","","","","","103","140","85","10","33","",""
"3590","4","rating","canvas-keyboard-response","91","4130321","0.0-11.0-0.40","117","2022-4-4","10:45:58","1","19","[""White""]","No","Female","4805897","","","","","","","","161","85","57","17","40","1",""
"null","null","clear_screen","canvas-keyboard-response","92","4130580","0.0-11.0-1.40","117","2022-4-4","10:45:58","1","19","[""White""]","No","Female","4805897","","","","","","","","161","85","57","17","40","",""
"1039","1","rating","canvas-keyboard-response","93","4131633","0.0-11.0-0.41","117","2022-4-4","10:45:58","1","19","[""White""]","No","Female","4805897","","","","","","","","106","140","30","10","40","0",""
"null","null","clear_screen","canvas-keyboard-response","94","4131895","0.0-11.0-1.41","117","2022-4-4","10:45:58","1","19","[""White""]","No","Female","4805897","","","","","","","","106","140","30","10","40","",""
"2604","7","rating","canvas-keyboard-response","95","4134513","0.0-11.0-0.42","117","2022-4-4","10:45:58","1","19","[""White""]","No","Female","4805897","","","","","","","","149","85","140","17","17","0",""
"null","null","clear_screen","canvas-keyboard-response","96","4134775","0.0-11.0-1.42","117","2022-4-4","10:45:58","1","19","[""White""]","No","Female","4805897","","","","","","","","149","85","140","17","17","",""
"2079","3","rating","canvas-keyboard-response","97","4136865","0.0-11.0-0.43","117","2022-4-4","10:45:58","1","19","[""White""]","No","Female","4805897","","","","","","","","73","113","85","10","17","1",""
"null","null","clear_screen","canvas-keyboard-response","98","4137125","0.0-11.0-1.43","117","2022-4-4","10:45:58","1","19","[""White""]","No","Female","4805897","","","","","","","","73","113","85","10","17","",""
"2223","4","rating","canvas-keyboard-response","99","4139361","0.0-11.0-0.44","117","2022-4-4","10:45:58","1","19","[""White""]","No","Female","4805897","","","","","","","","52","85","85","10","17","1",""
"null","null","clear_screen","canvas-keyboard-response","100","4139622","0.0-11.0-1.44","117","2022-4-4","10:45:58","1","19","[""White""]","No","Female","4805897","","","","","","","","52","85","85","10","17","",""
"3735","1","rating","canvas-keyboard-response","101","4143369","0.0-11.0-0.45","117","2022-4-4","10:45:58","1","19","[""White""]","No","Female","4805897","","","","","","","","51","85","57","10","17","1",""
"null","null","clear_screen","canvas-keyboard-response","102","4143626","0.0-11.0-1.45","117","2022-4-4","10:45:58","1","19","[""White""]","No","Female","4805897","","","","","","","","51","85","57","10","17","",""
"2176","4","rating","canvas-keyboard-response","103","4145818","0.0-11.0-0.46","117","2022-4-4","10:45:58","1","19","[""White""]","No","Female","4805897","","","","","","","","135","57","85","17","25","1",""
"null","null","clear_screen","canvas-keyboard-response","104","4146078","0.0-11.0-1.46","117","2022-4-4","10:45:58","1","19","[""White""]","No","Female","4805897","","","","","","","","135","57","85","17","25","",""
"857","1","rating","canvas-keyboard-response","105","4146945","0.0-11.0-0.47","117","2022-4-4","10:45:58","1","19","[""White""]","No","Female","4805897","","","","","","","","96","140","30","10","25","1",""
"119","1","clear_screen","canvas-keyboard-response","106","4147073","0.0-11.0-1.47","117","2022-4-4","10:45:58","1","19","[""White""]","No","Female","4805897","","","","","","","","96","140","30","10","25","",""
"2087","8","rating","canvas-keyboard-response","107","4149169","0.0-11.0-0.48","117","2022-4-4","10:45:58","1","19","[""White""]","No","Female","4805897","","","","","","","","232","85","85","25","40","1",""
"null","null","clear_screen","canvas-keyboard-response","108","4149430","0.0-11.0-1.48","117","2022-4-4","10:45:58","1","19","[""White""]","No","Female","4805897","","","","","","","","232","85","85","25","40","",""
"1861","8","rating","canvas-keyboard-response","109","4151305","0.0-11.0-0.49","117","2022-4-4","10:45:58","1","19","[""White""]","No","Female","4805897","","","","","","","","95","140","140","10","17","0",""
"null","null","clear_screen","canvas-keyboard-response","110","4151566","0.0-11.0-1.49","117","2022-4-4","10:45:58","1","19","[""White""]","No","Female","4805897","","","","","","","","95","140","140","10","17","",""
"1904","6","rating","canvas-keyboard-response","111","4153481","0.0-11.0-0.50","117","2022-4-4","10:45:58","1","19","[""White""]","No","Female","4805897","","","","","","","","285","113","140","33","40","1",""
"null","null","clear_screen","canvas-keyboard-response","112","4153742","0.0-11.0-1.50","117","2022-4-4","10:45:58","1","19","[""White""]","No","Female","4805897","","","","","","","","285","113","140","33","40","",""
"2689","2","rating","canvas-keyboard-response","113","4156440","0.0-11.0-0.51","117","2022-4-4","10:45:58","1","19","[""White""]","No","Female","4805897","","","","","","","","118","30","113","17","25","1",""
"null","null","clear_screen","canvas-keyboard-response","114","4156700","0.0-11.0-1.51","117","2022-4-4","10:45:58","1","19","[""White""]","No","Female","4805897","","","","","","","","118","30","113","17","25","",""
"3954","1","rating","canvas-keyboard-response","115","4160665","0.0-11.0-0.52","117","2022-4-4","10:45:58","1","19","[""White""]","No","Female","4805897","","","","","","","","35","57","85","10","25","0",""
"null","null","clear_screen","canvas-keyboard-response","116","4160926","0.0-11.0-1.52","117","2022-4-4","10:45:58","1","19","[""White""]","No","Female","4805897","","","","","","","","35","57","85","10","25","",""
"4557","6","rating","canvas-keyboard-response","117","4165497","0.0-11.0-0.53","117","2022-4-4","10:45:58","1","19","[""White""]","No","Female","4805897","","","","","","","","79","113","113","10","25","1",""
"null","null","clear_screen","canvas-keyboard-response","118","4165755","0.0-11.0-1.53","117","2022-4-4","10:45:58","1","19","[""White""]","No","Female","4805897","","","","","","","","79","113","113","10","25","",""
"1872","7","rating","canvas-keyboard-response","119","4167640","0.0-11.0-0.54","117","2022-4-4","10:45:58","1","19","[""White""]","No","Female","4805897","","","","","","","","70","113","140","10","10","1",""
"null","null","clear_screen","canvas-keyboard-response","120","4167899","0.0-11.0-1.54","117","2022-4-4","10:45:58","1","19","[""White""]","No","Female","4805897","","","","","","","","70","113","140","10","10","",""
"2239","1","rating","canvas-keyboard-response","121","4170154","0.0-11.0-0.55","117","2022-4-4","10:45:58","1","19","[""White""]","No","Female","4805897","","","","","","","","22","30","85","10","40","0",""
"null","null","clear_screen","canvas-keyboard-response","122","4170413","0.0-11.0-1.55","117","2022-4-4","10:45:58","1","19","[""White""]","No","Female","4805897","","","","","","","","22","30","85","10","40","",""
"1582","1","rating","canvas-keyboard-response","123","4172008","0.0-11.0-0.56","117","2022-4-4","10:45:58","1","19","[""White""]","No","Female","4805897","","","","","","","","154","85","140","17","25","0",""
"null","null","clear_screen","canvas-keyboard-response","124","4172268","0.0-11.0-1.56","117","2022-4-4","10:45:58","1","19","[""White""]","No","Female","4805897","","","","","","","","154","85","140","17","25","",""
"3562","1","rating","canvas-keyboard-response","125","4175841","0.0-11.0-0.57","117","2022-4-4","10:45:58","1","19","[""White""]","No","Female","4805897","","","","","","","","248","140","85","25","33","1",""
"null","null","clear_screen","canvas-keyboard-response","126","4176102","0.0-11.0-1.57","117","2022-4-4","10:45:58","1","19","[""White""]","No","Female","4805897","","","","","","","","248","140","85","25","33","",""
"1912","7","rating","canvas-keyboard-response","127","4178025","0.0-11.0-0.58","117","2022-4-4","10:45:58","1","19","[""White""]","No","Female","4805897","","","","","","","","207","30","85","25","40","0",""
"null","null","clear_screen","canvas-keyboard-response","128","4178286","0.0-11.0-1.58","117","2022-4-4","10:45:58","1","19","[""White""]","No","Female","4805897","","","","","","","","207","30","85","25","40","",""
"1882","1","rating","canvas-keyboard-response","129","4180177","0.0-11.0-0.59","117","2022-4-4","10:45:58","1","19","[""White""]","No","Female","4805897","","","","","","","","97","140","57","10","25","0",""
"null","null","clear_screen","canvas-keyboard-response","130","4180439","0.0-11.0-1.59","117","2022-4-4","10:45:58","1","19","[""White""]","No","Female","4805897","","","","","","","","97","140","57","10","25","",""
"11760","7","rating","canvas-keyboard-response","131","4192209","0.0-11.0-0.60","117","2022-4-4","10:45:58","1","19","[""White""]","No","Female","4805897","","","","","","","","27","57","140","10","10","0",""
"null","null","clear_screen","canvas-keyboard-response","132","4192468","0.0-11.0-1.60","117","2022-4-4","10:45:58","1","19","[""White""]","No","Female","4805897","","","","","","","","27","57","140","10","10","",""
"4728","1","rating","canvas-keyboard-response","133","4197209","0.0-11.0-0.61","117","2022-4-4","10:45:58","1","19","[""White""]","No","Female","4805897","","","","","","","","264","30","140","33","40","0",""
"null","null","clear_screen","canvas-keyboard-response","134","4197466","0.0-11.0-1.61","117","2022-4-4","10:45:58","1","19","[""White""]","No","Female","4805897","","","","","","","","264","30","140","33","40","",""
"1234","5","rating","canvas-keyboard-response","135","4198713","0.0-11.0-0.62","117","2022-4-4","10:45:58","1","19","[""White""]","No","Female","4805897","","","","","","","","120","30","30","17","33","0",""
"null","null","clear_screen","canvas-keyboard-response","136","4198971","0.0-11.0-1.62","117","2022-4-4","10:45:58","1","19","[""White""]","No","Female","4805897","","","","","","","","120","30","30","17","33","",""
"1623","2","rating","canvas-keyboard-response","137","4200609","0.0-11.0-0.63","117","2022-4-4","10:45:58","1","19","[""White""]","No","Female","4805897","","","","","","","","123","30","113","17","33","0",""
"null","null","clear_screen","canvas-keyboard-response","138","4200872","0.0-11.0-1.63","117","2022-4-4","10:45:58","1","19","[""White""]","No","Female","4805897","","","","","","","","123","30","113","17","33","",""
"1440","2","rating","canvas-keyboard-response","139","4202329","0.0-11.0-0.64","117","2022-4-4","10:45:58","1","19","[""White""]","No","Female","4805897","","","","","","","","41","57","113","10","33","1",""
"null","null","clear_screen","canvas-keyboard-response","140","4202588","0.0-11.0-1.64","117","2022-4-4","10:45:58","1","19","[""White""]","No","Female","4805897","","","","","","","","41","57","113","10","33","",""
"1078","1","rating","canvas-keyboard-response","141","4203682","0.0-11.0-0.65","117","2022-4-4","10:45:58","1","19","[""White""]","No","Female","4805897","","","","","","","","187","140","57","17","33","1",""
"null","null","clear_screen","canvas-keyboard-response","142","4203940","0.0-11.0-1.65","117","2022-4-4","10:45:58","1","19","[""White""]","No","Female","4805897","","","","","","","","187","140","57","17","33","",""
"2314","4","rating","canvas-keyboard-response","143","4206265","0.0-11.0-0.66","117","2022-4-4","10:45:58","1","19","[""White""]","No","Female","4805897","","","","","","","","117","30","85","17","25","0",""
"null","null","clear_screen","canvas-keyboard-response","144","4206527","0.0-11.0-1.66","117","2022-4-4","10:45:58","1","19","[""White""]","No","Female","4805897","","","","","","","","117","30","85","17","25","",""
"2763","5","rating","canvas-keyboard-response","145","4209305","0.0-11.0-0.67","117","2022-4-4","10:45:58","1","19","[""White""]","No","Female","4805897","","","","","","","","194","140","113","17","40","0",""
"null","null","clear_screen","canvas-keyboard-response","146","4209564","0.0-11.0-1.67","117","2022-4-4","10:45:58","1","19","[""White""]","No","Female","4805897","","","","","","","","194","140","113","17","40","",""
"6064","1","rating","canvas-keyboard-response","147","4215641","0.0-11.0-0.68","117","2022-4-4","10:45:58","1","19","[""White""]","No","Female","4805897","","","","","","","","87","113","57","10","40","1",""
"null","null","clear_screen","canvas-keyboard-response","148","4215902","0.0-11.0-1.68","117","2022-4-4","10:45:58","1","19","[""White""]","No","Female","4805897","","","","","","","","87","113","57","10","40","",""
"2270","4","rating","canvas-keyboard-response","149","4218184","0.0-11.0-0.69","117","2022-4-4","10:45:58","1","19","[""White""]","No","Female","4805897","","","","","","","","119","30","140","17","25","0",""
"null","null","clear_screen","canvas-keyboard-response","150","4218447","0.0-11.0-1.69","117","2022-4-4","10:45:58","1","19","[""White""]","No","Female","4805897","","","","","","","","119","30","140","17","25","",""
"2741","1","rating","canvas-keyboard-response","151","4221200","0.0-11.0-0.70","117","2022-4-4","10:45:58","1","19","[""White""]","No","Female","4805897","","","","","","","","107","140","57","10","40","0",""
"null","null","clear_screen","canvas-keyboard-response","152","4221459","0.0-11.0-1.70","117","2022-4-4","10:45:58","1","19","[""White""]","No","Female","4805897","","","","","","","","107","140","57","10","40","",""
"2506","7","rating","canvas-keyboard-response","153","4223976","0.0-11.0-0.71","117","2022-4-4","10:45:58","1","19","[""White""]","No","Female","4805897","","","","","","","","110","140","140","10","40","0",""
"null","null","clear_screen","canvas-keyboard-response","154","4224238","0.0-11.0-1.71","117","2022-4-4","10:45:58","1","19","[""White""]","No","Female","4805897","","","","","","","","110","140","140","10","40","",""
"1792","6","rating","canvas-keyboard-response","155","4226040","0.0-11.0-0.72","117","2022-4-4","10:45:58","1","19","[""White""]","No","Female","4805897","","","","","","","","90","113","140","10","40","1",""
"null","null","clear_screen","canvas-keyboard-response","156","4226299","0.0-11.0-1.72","117","2022-4-4","10:45:58","1","19","[""White""]","No","Female","4805897","","","","","","","","90","113","140","10","40","",""
"1443","2","rating","canvas-keyboard-response","157","4227751","0.0-11.0-0.73","117","2022-4-4","10:45:58","1","19","[""White""]","No","Female","4805897","","","","","","","","92","140","57","10","17","0",""
"null","null","clear_screen","canvas-keyboard-response","158","4228010","0.0-11.0-1.73","117","2022-4-4","10:45:58","1","19","[""White""]","No","Female","4805897","","","","","","","","92","140","57","10","17","",""
"2319","8","rating","canvas-keyboard-response","159","4230346","0.0-11.0-0.74","117","2022-4-4","10:45:58","1","19","[""White""]","No","Female","4805897","","","","","","","","265","57","85","33","33","0",""
"null","null","clear_screen","canvas-keyboard-response","160","4230607","0.0-11.0-1.74","117","2022-4-4","10:45:58","1","19","[""White""]","No","Female","4805897","","","","","","","","265","57","85","33","33","",""
"7319","3","rating","canvas-keyboard-response","161","4237937","0.0-11.0-0.75","117","2022-4-4","10:45:58","1","19","[""White""]","No","Female","4805897","","","","","","","","30","57","85","10","17","0",""
"null","null","clear_screen","canvas-keyboard-response","162","4238195","0.0-11.0-1.75","117","2022-4-4","10:45:58","1","19","[""White""]","No","Female","4805897","","","","","","","","30","57","85","10","17","",""
"3984","6","rating","canvas-keyboard-response","163","4242194","0.0-11.0-0.76","117","2022-4-4","10:45:58","1","19","[""White""]","No","Female","4805897","","","","","","","","287","140","57","33","40","0",""
"null","null","clear_screen","canvas-keyboard-response","164","4242456","0.0-11.0-1.76","117","2022-4-4","10:45:58","1","19","[""White""]","No","Female","4805897","","","","","","","","287","140","57","33","40","",""
"1237","4","rating","canvas-keyboard-response","165","4243705","0.0-11.0-0.77","117","2022-4-4","10:45:58","1","19","[""White""]","No","Female","4805897","","","","","","","","34","57","57","10","25","1",""
"null","null","clear_screen","canvas-keyboard-response","166","4243965","0.0-11.0-1.77","117","2022-4-4","10:45:58","1","19","[""White""]","No","Female","4805897","","","","","","","","34","57","57","10","25","",""
"1660","8","rating","canvas-keyboard-response","167","4245641","0.0-11.0-0.78","117","2022-4-4","10:45:58","1","19","[""White""]","No","Female","4805897","","","","","","","","283","113","85","33","40","1",""
"null","null","clear_screen","canvas-keyboard-response","168","4245900","0.0-11.0-1.78","117","2022-4-4","10:45:58","1","19","[""White""]","No","Female","4805897","","","","","","","","283","113","85","33","40","",""
"1464","3","rating","canvas-keyboard-response","169","4247378","0.0-11.0-0.79","117","2022-4-4","10:45:58","1","19","[""White""]","No","Female","4805897","","","","","","","","296","57","113","40","40","0",""
"null","null","clear_screen","canvas-keyboard-response","170","4247636","0.0-11.0-1.79","117","2022-4-4","10:45:58","1","19","[""White""]","No","Female","4805897","","","","","","","","296","57","113","40","40","",""
"22930","2","rating","canvas-keyboard-response","171","4270577","0.0-11.0-0.80","117","2022-4-4","10:45:58","1","19","[""White""]","No","Female","4805897","","","","","","","","209","30","140","25","40","1",""
"null","null","clear_screen","canvas-keyboard-response","172","4270836","0.0-11.0-1.80","117","2022-4-4","10:45:58","1","19","[""White""]","No","Female","4805897","","","","","","","","209","30","140","25","40","",""
"1055","2","rating","canvas-keyboard-response","173","4271905","0.0-11.0-0.81","117","2022-4-4","10:45:58","1","19","[""White""]","No","Female","4805897","","","","","","","","29","57","57","10","17","1",""
"null","null","clear_screen","canvas-keyboard-response","174","4272165","0.0-11.0-1.81","117","2022-4-4","10:45:58","1","19","[""White""]","No","Female","4805897","","","","","","","","29","57","57","10","17","",""
"1754","8","rating","canvas-keyboard-response","175","4273928","0.0-11.0-0.82","117","2022-4-4","10:45:58","1","19","[""White""]","No","Female","4805897","","","","","","","","195","140","140","17","40","0",""
"null","null","clear_screen","canvas-keyboard-response","176","4274187","0.0-11.0-1.82","117","2022-4-4","10:45:58","1","19","[""White""]","No","Female","4805897","","","","","","","","195","140","140","17","40","",""
"1386","5","rating","canvas-keyboard-response","177","4275584","0.0-11.0-0.83","117","2022-4-4","10:45:58","1","19","[""White""]","No","Female","4805897","","","","","","","","224","85","140","25","25","1",""
"null","null","clear_screen","canvas-keyboard-response","178","4275845","0.0-11.0-1.83","117","2022-4-4","10:45:58","1","19","[""White""]","No","Female","4805897","","","","","","","","224","85","140","25","25","",""
"1214","3","rating","canvas-keyboard-response","179","4277074","0.0-11.0-0.84","117","2022-4-4","10:45:58","1","19","[""White""]","No","Female","4805897","","","","","","","","267","57","140","33","33","1",""
"null","null","clear_screen","canvas-keyboard-response","180","4277334","0.0-11.0-1.84","117","2022-4-4","10:45:58","1","19","[""White""]","No","Female","4805897","","","","","","","","267","57","140","33","33","",""
"1677","3","rating","canvas-keyboard-response","181","4279024","0.0-11.0-0.85","117","2022-4-4","10:45:58","1","19","[""White""]","No","Female","4805897","","","","","","","","234","85","140","25","40","0",""
"null","null","clear_screen","canvas-keyboard-response","182","4279284","0.0-11.0-1.85","117","2022-4-4","10:45:58","1","19","[""White""]","No","Female","4805897","","","","","","","","234","85","140","25","40","",""
"1286","3","rating","canvas-keyboard-response","183","4280584","0.0-11.0-0.86","117","2022-4-4","10:45:58","1","19","[""White""]","No","Female","4805897","","","","","","","","38","57","30","10","33","1",""
"null","null","clear_screen","canvas-keyboard-response","184","4280847","0.0-11.0-1.86","117","2022-4-4","10:45:58","1","19","[""White""]","No","Female","4805897","","","","","","","","38","57","30","10","33","",""
"739","1","rating","canvas-keyboard-response","185","4281601","0.0-11.0-0.87","117","2022-4-4","10:45:58","1","19","[""White""]","No","Female","4805897","","","","","","","","2","30","85","10","10","1",""
"null","null","clear_screen","canvas-keyboard-response","186","4281858","0.0-11.0-1.87","117","2022-4-4","10:45:58","1","19","[""White""]","No","Female","4805897","","","","","","","","2","30","85","10","10","",""
"1401","1","rating","canvas-keyboard-response","187","4283271","0.0-11.0-0.88","117","2022-4-4","10:45:58","1","19","[""White""]","No","Female","4805897","","","","","","","","176","113","30","17","40","1",""
"null","null","clear_screen","canvas-keyboard-response","188","4283529","0.0-11.0-1.88","117","2022-4-4","10:45:58","1","19","[""White""]","No","Female","4805897","","","","","","","","176","113","30","17","40","",""
"2604","1","rating","canvas-keyboard-response","189","4286145","0.0-11.0-0.89","117","2022-4-4","10:45:58","1","19","[""White""]","No","Female","4805897","","","","","","","","160","85","30","17","40","0",""
"null","null","clear_screen","canvas-keyboard-response","190","4286404","0.0-11.0-1.89","117","2022-4-4","10:45:58","1","19","[""White""]","No","Female","4805897","","","","","","","","160","85","30","17","40","",""
"1928","6","rating","canvas-keyboard-response","191","4288345","0.0-11.0-0.90","117","2022-4-4","10:45:58","1","19","[""White""]","No","Female","4805897","","","","","","","","134","57","57","17","25","1",""
"null","null","clear_screen","canvas-keyboard-response","192","4288603","0.0-11.0-1.90","117","2022-4-4","10:45:58","1","19","[""White""]","No","Female","4805897","","","","","","","","134","57","57","17","25","",""
"1023","1","rating","canvas-keyboard-response","193","4289640","0.0-11.0-0.91","117","2022-4-4","10:45:58","1","19","[""White""]","No","Female","4805897","","","","","","","","18","30","113","10","33","0",""
"null","null","clear_screen","canvas-keyboard-response","194","4289899","0.0-11.0-1.91","117","2022-4-4","10:45:58","1","19","[""White""]","No","Female","4805897","","","","","","","","18","30","113","10","33","",""
"1921","7","rating","canvas-keyboard-response","195","4291833","0.0-11.0-0.92","117","2022-4-4","10:45:58","1","19","[""White""]","No","Female","4805897","","","","","","","","256","30","57","33","33","0",""
"null","null","clear_screen","canvas-keyboard-response","196","4292092","0.0-11.0-1.92","117","2022-4-4","10:45:58","1","19","[""White""]","No","Female","4805897","","","","","","","","256","30","57","33","33","",""
"2652","6","rating","canvas-keyboard-response","197","4294753","0.0-11.0-0.93","117","2022-4-4","10:45:58","1","19","[""White""]","No","Female","4805897","","","","","","","","226","85","57","25","33","0",""
"null","null","clear_screen","canvas-keyboard-response","198","4295014","0.0-11.0-1.93","117","2022-4-4","10:45:58","1","19","[""White""]","No","Female","4805897","","","","","","","","226","85","57","25","33","",""
"2124","8","rating","canvas-keyboard-response","199","4297153","0.0-11.0-0.94","117","2022-4-4","10:45:58","1","19","[""White""]","No","Female","4805897","","","","","","","","291","30","57","40","40","1",""
"null","null","clear_screen","canvas-keyboard-response","200","4297414","0.0-11.0-1.94","117","2022-4-4","10:45:58","1","19","[""White""]","No","Female","4805897","","","","","","","","291","30","57","40","40","",""
"1635","1","rating","canvas-keyboard-response","201","4299064","0.0-11.0-0.95","117","2022-4-4","10:45:58","1","19","[""White""]","No","Female","4805897","","","","","","","","19","30","140","10","33","1",""
"null","null","clear_screen","canvas-keyboard-response","202","4299326","0.0-11.0-1.95","117","2022-4-4","10:45:58","1","19","[""White""]","No","Female","4805897","","","","","","","","19","30","140","10","33","",""
"1192","1","rating","canvas-keyboard-response","203","4300528","0.0-11.0-0.96","117","2022-4-4","10:45:58","1","19","[""White""]","No","Female","4805897","","","","","","","","159","85","140","17","33","0",""
"null","null","clear_screen","canvas-keyboard-response","204","4300788","0.0-11.0-1.96","117","2022-4-4","10:45:58","1","19","[""White""]","No","Female","4805897","","","","","","","","159","85","140","17","33","",""
"906","1","rating","canvas-keyboard-response","205","4301704","0.0-11.0-0.97","117","2022-4-4","10:45:58","1","19","[""White""]","No","Female","4805897","","","","","","","","102","140","57","10","33","1",""
"null","null","clear_screen","canvas-keyboard-response","206","4301964","0.0-11.0-1.97","117","2022-4-4","10:45:58","1","19","[""White""]","No","Female","4805897","","","","","","","","102","140","57","10","33","",""
"1186","1","rating","canvas-keyboard-response","207","4303160","0.0-11.0-0.98","117","2022-4-4","10:45:58","1","19","[""White""]","No","Female","4805897","","","","","","","","66","85","57","10","40","0",""
"null","null","clear_screen","canvas-keyboard-response","208","4303422","0.0-11.0-1.98","117","2022-4-4","10:45:58","1","19","[""White""]","No","Female","4805897","","","","","","","","66","85","57","10","40","",""
"3080","3","rating","canvas-keyboard-response","209","4306513","0.0-11.0-0.99","117","2022-4-4","10:45:58","1","19","[""White""]","No","Female","4805897","","","","","","","","139","57","57","17","33","0",""
"null","null","clear_screen","canvas-keyboard-response","210","4306772","0.0-11.0-1.99","117","2022-4-4","10:45:58","1","19","[""White""]","No","Female","4805897","","","","","","","","139","57","57","17","33","",""
"1754","1","rating","canvas-keyboard-response","211","4308536","0.0-11.0-0.100","117","2022-4-4","10:45:58","1","19","[""White""]","No","Female","4805897","","","","","","","","252","140","57","25","40","1",""
"null","null","clear_screen","canvas-keyboard-response","212","4308795","0.0-11.0-1.100","117","2022-4-4","10:45:58","1","19","[""White""]","No","Female","4805897","","","","","","","","252","140","57","25","40","",""
"1835","7","rating","canvas-keyboard-response","213","4310640","0.0-11.0-0.101","117","2022-4-4","10:45:58","1","19","[""White""]","No","Female","4805897","","","","","","","","26","57","113","10","10","1",""
"null","null","clear_screen","canvas-keyboard-response","214","4310899","0.0-11.0-1.101","117","2022-4-4","10:45:58","1","19","[""White""]","No","Female","4805897","","","","","","","","26","57","113","10","10","",""
"2358","1","rating","canvas-keyboard-response","215","4313272","0.0-11.0-0.102","117","2022-4-4","10:45:58","1","19","[""White""]","No","Female","4805897","","","","","","","","109","140","113","10","40","1",""
"null","null","clear_screen","canvas-keyboard-response","216","4313534","0.0-11.0-1.102","117","2022-4-4","10:45:58","1","19","[""White""]","No","Female","4805897","","","","","","","","109","140","113","10","40","",""
"5151","1","rating","canvas-keyboard-response","217","4318696","0.0-11.0-0.103","117","2022-4-4","10:45:58","1","19","[""White""]","No","Female","4805897","","","","","","","","55","85","30","10","25","1",""
"null","null","clear_screen","canvas-keyboard-response","218","4318954","0.0-11.0-1.103","117","2022-4-4","10:45:58","1","19","[""White""]","No","Female","4805897","","","","","","","","55","85","30","10","25","",""
"1915","8","rating","canvas-keyboard-response","219","4320880","0.0-11.0-0.104","117","2022-4-4","10:45:58","1","19","[""White""]","No","Female","4805897","","","","","","","","239","113","113","25","33","0",""
"null","null","clear_screen","canvas-keyboard-response","220","4321140","0.0-11.0-1.104","117","2022-4-4","10:45:58","1","19","[""White""]","No","Female","4805897","","","","","","","","239","113","113","25","33","",""
"4142","7","rating","canvas-keyboard-response","221","4325297","0.0-11.0-0.105","117","2022-4-4","10:45:58","1","19","[""White""]","No","Female","4805897","","","","","","","","196","30","57","25","25","1",""
"null","null","clear_screen","canvas-keyboard-response","222","4325557","0.0-11.0-1.105","117","2022-4-4","10:45:58","1","19","[""White""]","No","Female","4805897","","","","","","","","196","30","57","25","25","",""
"1361","7","rating","canvas-keyboard-response","223","4326929","0.0-11.0-0.106","117","2022-4-4","10:45:58","1","19","[""White""]","No","Female","4805897","","","","","","","","136","57","113","17","25","0",""
"null","null","clear_screen","canvas-keyboard-response","224","4327190","0.0-11.0-1.106","117","2022-4-4","10:45:58","1","19","[""White""]","No","Female","4805897","","","","","","","","136","57","113","17","25","",""
"1835","1","rating","canvas-keyboard-response","225","4329041","0.0-11.0-0.107","117","2022-4-4","10:45:58","1","19","[""White""]","No","Female","4805897","","","","","","","","147","57","140","17","40","1",""
"null","null","clear_screen","canvas-keyboard-response","226","4329302","0.0-11.0-1.107","117","2022-4-4","10:45:58","1","19","[""White""]","No","Female","4805897","","","","","","","","147","57","140","17","40","",""
"816","1","rating","canvas-keyboard-response","227","4330129","0.0-11.0-0.108","117","2022-4-4","10:45:58","1","19","[""White""]","No","Female","4805897","","","","","","","","208","30","113","25","40","1",""
"null","null","clear_screen","canvas-keyboard-response","228","4330391","0.0-11.0-1.108","117","2022-4-4","10:45:58","1","19","[""White""]","No","Female","4805897","","","","","","","","208","30","113","25","40","",""
"1041","1","rating","canvas-keyboard-response","229","4331440","0.0-11.0-0.109","117","2022-4-4","10:45:58","1","19","[""White""]","No","Female","4805897","","","","","","","","177","113","57","17","40","0",""
"null","null","clear_screen","canvas-keyboard-response","230","4331702","0.0-11.0-1.109","117","2022-4-4","10:45:58","1","19","[""White""]","No","Female","4805897","","","","","","","","177","113","57","17","40","",""
"1491","6","rating","canvas-keyboard-response","231","4333209","0.0-11.0-0.110","117","2022-4-4","10:45:58","1","19","[""White""]","No","Female","4805897","","","","","","","","220","57","85","25","40","1",""
"null","null","clear_screen","canvas-keyboard-response","232","4333467","0.0-11.0-1.110","117","2022-4-4","10:45:58","1","19","[""White""]","No","Female","4805897","","","","","","","","220","57","85","25","40","",""
"1138","1","rating","canvas-keyboard-response","233","4334616","0.0-11.0-0.111","117","2022-4-4","10:45:58","1","19","[""White""]","No","Female","4805897","","","","","","","","23","30","113","10","40","1",""
"null","null","clear_screen","canvas-keyboard-response","234","4334876","0.0-11.0-1.111","117","2022-4-4","10:45:58","1","19","[""White""]","No","Female","4805897","","","","","","","","23","30","113","10","40","",""
"1589","9","rating","canvas-keyboard-response","235","4336478","0.0-11.0-0.112","117","2022-4-4","10:45:58","1","19","[""White""]","No","Female","4805897","","","","","","","","277","85","85","33","40","1",""
"null","null","clear_screen","canvas-keyboard-response","236","4336732","0.0-11.0-1.112","117","2022-4-4","10:45:58","1","19","[""White""]","No","Female","4805897","","","","","","","","277","85","85","33","40","",""
"1015","1","rating","canvas-keyboard-response","237","4337760","0.0-11.0-0.113","117","2022-4-4","10:45:58","1","19","[""White""]","No","Female","4805897","","","","","","","","69","85","140","10","40","1",""
"null","null","clear_screen","canvas-keyboard-response","238","4338022","0.0-11.0-1.113","117","2022-4-4","10:45:58","1","19","[""White""]","No","Female","4805897","","","","","","","","69","85","140","10","40","",""
"2894","8","rating","canvas-keyboard-response","239","4340931","0.0-11.0-0.114","117","2022-4-4","10:45:58","1","19","[""White""]","No","Female","4805897","","","","","","","","273","85","113","33","33","1",""
"null","null","clear_screen","canvas-keyboard-response","240","4341191","0.0-11.0-1.114","117","2022-4-4","10:45:58","1","19","[""White""]","No","Female","4805897","","","","","","","","273","85","113","33","33","",""
"1029","1","rating","canvas-keyboard-response","241","4342233","0.0-11.0-0.115","117","2022-4-4","10:45:58","1","19","[""White""]","No","Female","4805897","","","","","","","","37","57","140","10","25","1",""
"null","null","clear_screen","canvas-keyboard-response","242","4342495","0.0-11.0-1.115","117","2022-4-4","10:45:58","1","19","[""White""]","No","Female","4805897","","","","","","","","37","57","140","10","25","",""
"1348","3","rating","canvas-keyboard-response","243","4343857","0.0-11.0-0.116","117","2022-4-4","10:45:58","1","19","[""White""]","No","Female","4805897","","","","","","","","189","140","113","17","33","1",""
"null","null","clear_screen","canvas-keyboard-response","244","4344117","0.0-11.0-1.116","117","2022-4-4","10:45:58","1","19","[""White""]","No","Female","4805897","","","","","","","","189","140","113","17","33","",""
"5762","4","rating","canvas-keyboard-response","245","4349889","0.0-11.0-0.117","117","2022-4-4","10:45:58","1","19","[""White""]","No","Female","4805897","","","","","","","","282","113","57","33","40","1",""
"null","null","clear_screen","canvas-keyboard-response","246","4350148","0.0-11.0-1.117","117","2022-4-4","10:45:58","1","19","[""White""]","No","Female","4805897","","","","","","","","282","113","57","33","40","",""
"1283","3","rating","canvas-keyboard-response","247","4351441","0.0-11.0-0.118","117","2022-4-4","10:45:58","1","19","[""White""]","No","Female","4805897","","","","","","","","172","113","57","17","33","1",""
"null","null","clear_screen","canvas-keyboard-response","248","4351699","0.0-11.0-1.118","117","2022-4-4","10:45:58","1","19","[""White""]","No","Female","4805897","","","","","","","","172","113","57","17","33","",""
"1132","1","rating","canvas-keyboard-response","249","4352841","0.0-11.0-0.119","117","2022-4-4","10:45:58","1","19","[""White""]","No","Female","4805897","","","","","","","","15","30","30","10","33","0",""
"null","null","clear_screen","canvas-keyboard-response","250","4353101","0.0-11.0-1.119","117","2022-4-4","10:45:58","1","19","[""White""]","No","Female","4805897","","","","","","","","15","30","30","10","33","",""
"1855","7","rating","canvas-keyboard-response","251","4354968","0.0-11.0-0.120","117","2022-4-4","10:45:58","1","19","[""White""]","No","Female","4805897","","","","","","","","3","30","113","10","10","0",""
"null","null","clear_screen","canvas-keyboard-response","252","4355227","0.0-11.0-1.120","117","2022-4-4","10:45:58","1","19","[""White""]","No","Female","4805897","","","","","","","","3","30","113","10","10","",""
"1058","6","rating","canvas-keyboard-response","253","4356296","0.0-11.0-0.121","117","2022-4-4","10:45:58","1","19","[""White""]","No","Female","4805897","","","","","","","","181","140","30","17","25","0",""
"null","null","clear_screen","canvas-keyboard-response","254","4356557","0.0-11.0-1.121","117","2022-4-4","10:45:58","1","19","[""White""]","No","Female","4805897","","","","","","","","181","140","30","17","25","",""
"2057","5","rating","canvas-keyboard-response","255","4358625","0.0-11.0-0.122","117","2022-4-4","10:45:58","1","19","[""White""]","No","Female","4805897","","","","","","","","237","113","57","25","33","1",""
"null","null","clear_screen","canvas-keyboard-response","256","4358883","0.0-11.0-1.122","117","2022-4-4","10:45:58","1","19","[""White""]","No","Female","4805897","","","","","","","","237","113","57","25","33","",""
"1865","5","rating","canvas-keyboard-response","257","4360760","0.0-11.0-0.123","117","2022-4-4","10:45:58","1","19","[""White""]","No","Female","4805897","","","","","","","","246","140","30","25","33","1",""
"null","null","clear_screen","canvas-keyboard-response","258","4361019","0.0-11.0-1.123","117","2022-4-4","10:45:58","1","19","[""White""]","No","Female","4805897","","","","","","","","246","140","30","25","33","",""
"7256","1","rating","canvas-keyboard-response","259","4368289","0.0-11.0-0.124","117","2022-4-4","10:45:58","1","19","[""White""]","No","Female","4805897","","","","","","","","126","30","57","17","40","0",""
"null","null","clear_screen","canvas-keyboard-response","260","4368550","0.0-11.0-1.124","117","2022-4-4","10:45:58","1","19","[""White""]","No","Female","4805897","","","","","","","","126","30","57","17","40","",""
"2557","6","rating","canvas-keyboard-response","261","4371120","0.0-11.0-0.125","117","2022-4-4","10:45:58","1","19","[""White""]","No","Female","4805897","","","","","","","","104","140","113","10","33","1",""
"null","null","clear_screen","canvas-keyboard-response","262","4371379","0.0-11.0-1.125","117","2022-4-4","10:45:58","1","19","[""White""]","No","Female","4805897","","","","","","","","104","140","113","10","33","",""
"1344","1","rating","canvas-keyboard-response","263","4372736","0.0-11.0-0.126","117","2022-4-4","10:45:58","1","19","[""White""]","No","Female","4805897","","","","","","","","33","57","30","10","25","0",""
"null","null","clear_screen","canvas-keyboard-response","264","4372995","0.0-11.0-1.126","117","2022-4-4","10:45:58","1","19","[""White""]","No","Female","4805897","","","","","","","","33","57","30","10","25","",""
"1163","1","rating","canvas-keyboard-response","265","4374168","0.0-11.0-0.127","117","2022-4-4","10:45:58","1","19","[""White""]","No","Female","4805897","","","","","","","","171","113","30","17","33","1",""
"null","null","clear_screen","canvas-keyboard-response","266","4374427","0.0-11.0-1.127","117","2022-4-4","10:45:58","1","19","[""White""]","No","Female","4805897","","","","","","","","171","113","30","17","33","",""
"1553","7","rating","canvas-keyboard-response","267","4375992","0.0-11.0-0.128","117","2022-4-4","10:45:58","1","19","[""White""]","No","Female","4805897","","","","","","","","215","57","85","25","33","0",""
"null","null","clear_screen","canvas-keyboard-response","268","4376254","0.0-11.0-1.128","117","2022-4-4","10:45:58","1","19","[""White""]","No","Female","4805897","","","","","","","","215","57","85","25","33","",""
"2041","8","rating","canvas-keyboard-response","269","4378304","0.0-11.0-0.129","117","2022-4-4","10:45:58","1","19","[""White""]","No","Female","4805897","","","","","","","","276","85","57","33","40","1",""
"null","null","clear_screen","canvas-keyboard-response","270","4378566","0.0-11.0-1.129","117","2022-4-4","10:45:58","1","19","[""White""]","No","Female","4805897","","","","","","","","276","85","57","33","40","",""
"1423","8","rating","canvas-keyboard-response","271","4380000","0.0-11.0-0.130","117","2022-4-4","10:45:58","1","19","[""White""]","No","Female","4805897","","","","","","","","262","30","85","33","40","0",""
"null","null","clear_screen","canvas-keyboard-response","272","4380258","0.0-11.0-1.130","117","2022-4-4","10:45:58","1","19","[""White""]","No","Female","4805897","","","","","","","","262","30","85","33","40","",""
"1803","8","rating","canvas-keyboard-response","273","4382073","0.0-11.0-0.131","117","2022-4-4","10:45:58","1","19","[""White""]","No","Female","4805897","","","","","","","","67","85","85","10","40","1",""
"null","null","clear_screen","canvas-keyboard-response","274","4382334","0.0-11.0-1.131","117","2022-4-4","10:45:58","1","19","[""White""]","No","Female","4805897","","","","","","","","67","85","85","10","40","",""
"1249","1","rating","canvas-keyboard-response","275","4383594","0.0-11.0-0.132","117","2022-4-4","10:45:58","1","19","[""White""]","No","Female","4805897","","","","","","","","124","30","140","17","33","0",""
"null","null","clear_screen","canvas-keyboard-response","276","4383855","0.0-11.0-1.132","117","2022-4-4","10:45:58","1","19","[""White""]","No","Female","4805897","","","","","","","","124","30","140","17","33","",""
"1660","1","rating","canvas-keyboard-response","277","4385529","0.0-11.0-0.133","117","2022-4-4","10:45:58","1","19","[""White""]","No","Female","4805897","","","","","","","","60","85","30","10","33","1",""
"null","null","clear_screen","canvas-keyboard-response","278","4385790","0.0-11.0-1.133","117","2022-4-4","10:45:58","1","19","[""White""]","No","Female","4805897","","","","","","","","60","85","30","10","33","",""
"1358","1","rating","canvas-keyboard-response","279","4387160","0.0-11.0-0.134","117","2022-4-4","10:45:58","1","19","[""White""]","No","Female","4805897","","","","","","","","98","140","85","10","25","1",""
"null","null","clear_screen","canvas-keyboard-response","280","4387420","0.0-11.0-1.134","117","2022-4-4","10:45:58","1","19","[""White""]","No","Female","4805897","","","","","","","","98","140","85","10","25","",""
"2546","7","rating","canvas-keyboard-response","281","4389977","0.0-11.0-0.135","117","2022-4-4","10:45:58","1","19","[""White""]","No","Female","4805897","","","","","","","","286","140","30","33","40","0",""
"null","null","clear_screen","canvas-keyboard-response","282","4390236","0.0-11.0-1.135","117","2022-4-4","10:45:58","1","19","[""White""]","No","Female","4805897","","","","","","","","286","140","30","33","40","",""
"4544","1","rating","canvas-keyboard-response","283","4394793","0.0-11.0-0.136","117","2022-4-4","10:45:58","1","19","[""White""]","No","Female","4805897","","","","","","","","12","30","85","10","25","1",""
"null","null","clear_screen","canvas-keyboard-response","284","4395054","0.0-11.0-1.136","117","2022-4-4","10:45:58","1","19","[""White""]","No","Female","4805897","","","","","","","","12","30","85","10","25","",""
"984","1","rating","canvas-keyboard-response","285","4396049","0.0-11.0-0.137","117","2022-4-4","10:45:58","1","19","[""White""]","No","Female","4805897","","","","","","","","10","30","30","10","25","1",""
"null","null","clear_screen","canvas-keyboard-response","286","4396309","0.0-11.0-1.137","117","2022-4-4","10:45:58","1","19","[""White""]","No","Female","4805897","","","","","","","","10","30","30","10","25","",""
"2227","7","rating","canvas-keyboard-response","287","4398552","0.0-11.0-0.138","117","2022-4-4","10:45:58","1","19","[""White""]","No","Female","4805897","","","","","","","","8","30","113","10","17","0",""
"null","null","clear_screen","canvas-keyboard-response","288","4398811","0.0-11.0-1.138","117","2022-4-4","10:45:58","1","19","[""White""]","No","Female","4805897","","","","","","","","8","30","113","10","17","",""
"2181","7","rating","canvas-keyboard-response","289","4401000","0.0-11.0-0.139","117","2022-4-4","10:45:58","1","19","[""White""]","No","Female","4805897","","","","","","","","4","30","140","10","10","1",""
"null","null","clear_screen","canvas-keyboard-response","290","4401262","0.0-11.0-1.139","117","2022-4-4","10:45:58","1","19","[""White""]","No","Female","4805897","","","","","","","","4","30","140","10","10","",""
"1812","6","rating","canvas-keyboard-response","291","4403089","0.0-11.0-0.140","117","2022-4-4","10:45:58","1","19","[""White""]","No","Female","4805897","","","","","","","","244","113","113","25","40","1",""
"null","null","clear_screen","canvas-keyboard-response","292","4403349","0.0-11.0-1.140","117","2022-4-4","10:45:58","1","19","[""White""]","No","Female","4805897","","","","","","","","244","113","113","25","40","",""
"5324","1","rating","canvas-keyboard-response","293","4408689","0.0-11.0-0.141","117","2022-4-4","10:45:58","1","19","[""White""]","No","Female","4805897","","","","","","","","77","113","57","10","25","1",""
"null","null","clear_screen","canvas-keyboard-response","294","4408950","0.0-11.0-1.141","117","2022-4-4","10:45:58","1","19","[""White""]","No","Female","4805897","","","","","","","","77","113","57","10","25","",""
"760","1","rating","canvas-keyboard-response","295","4409720","0.0-11.0-0.142","117","2022-4-4","10:45:58","1","19","[""White""]","No","Female","4805897","","","","","","","","62","85","85","10","33","1",""
"null","null","clear_screen","canvas-keyboard-response","296","4409980","0.0-11.0-1.142","117","2022-4-4","10:45:58","1","19","[""White""]","No","Female","4805897","","","","","","","","62","85","85","10","33","",""
"1378","7","rating","canvas-keyboard-response","297","4411369","0.0-11.0-0.143","117","2022-4-4","10:45:58","1","19","[""White""]","No","Female","4805897","","","","","","","","217","57","140","25","33","1",""
"null","null","clear_screen","canvas-keyboard-response","298","4411627","0.0-11.0-1.143","117","2022-4-4","10:45:58","1","19","[""White""]","No","Female","4805897","","","","","","","","217","57","140","25","33","",""
"1506","1","rating","canvas-keyboard-response","299","4413144","0.0-11.0-0.144","117","2022-4-4","10:45:58","1","19","[""White""]","No","Female","4805897","","","","","","","","16","30","57","10","33","1",""
"null","null","clear_screen","canvas-keyboard-response","300","4413407","0.0-11.0-1.144","117","2022-4-4","10:45:58","1","19","[""White""]","No","Female","4805897","","","","","","","","16","30","57","10","33","",""
"1524","8","rating","canvas-keyboard-response","301","4414944","0.0-11.0-0.145","117","2022-4-4","10:45:58","1","19","[""White""]","No","Female","4805897","","","","","","","","223","85","113","25","25","1",""
"null","null","clear_screen","canvas-keyboard-response","302","4415204","0.0-11.0-1.145","117","2022-4-4","10:45:58","1","19","[""White""]","No","Female","4805897","","","","","","","","223","85","113","25","25","",""
"2362","1","rating","canvas-keyboard-response","303","4417578","0.0-11.0-0.146","117","2022-4-4","10:45:58","1","19","[""White""]","No","Female","4805897","","","","","","","","116","30","57","17","25","0",""
"null","null","clear_screen","canvas-keyboard-response","304","4417837","0.0-11.0-1.146","117","2022-4-4","10:45:58","1","19","[""White""]","No","Female","4805897","","","","","","","","116","30","57","17","25","",""
"11731","4","rating","canvas-keyboard-response","305","4429585","0.0-11.0-0.147","117","2022-4-4","10:45:58","1","19","[""White""]","No","Female","4805897","","","","","","","","53","85","113","10","17","1",""
"null","null","clear_screen","canvas-keyboard-response","306","4429846","0.0-11.0-1.147","117","2022-4-4","10:45:58","1","19","[""White""]","No","Female","4805897","","","","","","","","53","85","113","10","17","",""
"1359","4","rating","canvas-keyboard-response","307","4431216","0.0-11.0-0.148","117","2022-4-4","10:45:58","1","19","[""White""]","No","Female","4805897","","","","","","","","253","140","85","25","40","1",""
"null","null","clear_screen","canvas-keyboard-response","308","4431479","0.0-11.0-1.148","117","2022-4-4","10:45:58","1","19","[""White""]","No","Female","4805897","","","","","","","","253","140","85","25","40","",""
"2197","3","rating","canvas-keyboard-response","309","4433689","0.0-11.0-0.149","117","2022-4-4","10:45:58","1","19","[""White""]","No","Female","4805897","","","","","","","","138","57","30","17","33","0",""
"null","null","clear_screen","canvas-keyboard-response","310","4433949","0.0-11.0-1.149","117","2022-4-4","10:45:58","1","19","[""White""]","No","Female","4805897","","","","","","","","138","57","30","17","33","",""
"1903","7","rating","canvas-keyboard-response","311","4435865","0.0-11.0-0.150","117","2022-4-4","10:45:58","1","19","[""White""]","No","Female","4805897","","","","","","","","263","30","113","33","40","0",""
"null","null","clear_screen","canvas-keyboard-response","312","4436124","0.0-11.0-1.150","117","2022-4-4","10:45:58","1","19","[""White""]","No","Female","4805897","","","","","","","","263","30","113","33","40","",""
"15616","1","rating","canvas-keyboard-response","313","4451753","0.0-11.0-0.151","117","2022-4-4","10:45:58","1","19","[""White""]","No","Female","4805897","","","","","","","","68","85","113","10","40","1",""
"null","null","clear_screen","canvas-keyboard-response","314","4452015","0.0-11.0-1.151","117","2022-4-4","10:45:58","1","19","[""White""]","No","Female","4805897","","","","","","","","68","85","113","10","40","",""
"837","1","rating","canvas-keyboard-response","315","4452864","0.0-11.0-0.152","117","2022-4-4","10:45:58","1","19","[""White""]","No","Female","4805897","","","","","","","","64","85","140","10","33","0",""
"null","null","clear_screen","canvas-keyboard-response","316","4453123","0.0-11.0-1.152","117","2022-4-4","10:45:58","1","19","[""White""]","No","Female","4805897","","","","","","","","64","85","140","10","33","",""
"1497","5","rating","canvas-keyboard-response","317","4454633","0.0-11.0-0.153","117","2022-4-4","10:45:58","1","19","[""White""]","No","Female","4805897","","","","","","","","175","113","140","17","33","0",""
"null","null","clear_screen","canvas-keyboard-response","318","4454895","0.0-11.0-1.153","117","2022-4-4","10:45:58","1","19","[""White""]","No","Female","4805897","","","","","","","","175","113","140","17","33","",""
"1237","1","rating","canvas-keyboard-response","319","4456144","0.0-11.0-0.154","117","2022-4-4","10:45:58","1","19","[""White""]","No","Female","4805897","","","","","","","","72","113","57","10","17","1",""
"null","null","clear_screen","canvas-keyboard-response","320","4456403","0.0-11.0-1.154","117","2022-4-4","10:45:58","1","19","[""White""]","No","Female","4805897","","","","","","","","72","113","57","10","17","",""
"1426","8","rating","canvas-keyboard-response","321","4457841","0.0-11.0-0.155","117","2022-4-4","10:45:58","1","19","[""White""]","No","Female","4805897","","","","","","","","39","57","57","10","33","0",""
"null","null","clear_screen","canvas-keyboard-response","322","4458100","0.0-11.0-1.155","117","2022-4-4","10:45:58","1","19","[""White""]","No","Female","4805897","","","","","","","","39","57","57","10","33","",""
"1207","5","rating","canvas-keyboard-response","323","4459321","0.0-11.0-0.156","117","2022-4-4","10:45:58","1","19","[""White""]","No","Female","4805897","","","","","","","","127","30","85","17","40","1",""
"null","null","clear_screen","canvas-keyboard-response","324","4459583","0.0-11.0-1.156","117","2022-4-4","10:45:58","1","19","[""White""]","No","Female","4805897","","","","","","","","127","30","85","17","40","",""
"1317","6","rating","canvas-keyboard-response","325","4460913","0.0-11.0-0.157","117","2022-4-4","10:45:58","1","19","[""White""]","No","Female","4805897","","","","","","","","210","57","85","25","25","0",""
"null","null","clear_screen","canvas-keyboard-response","326","4461172","0.0-11.0-1.157","117","2022-4-4","10:45:58","1","19","[""White""]","No","Female","4805897","","","","","","","","210","57","85","25","25","",""
"1353","7","rating","canvas-keyboard-response","327","4462537","0.0-11.0-0.158","117","2022-4-4","10:45:58","1","19","[""White""]","No","Female","4805897","","","","","","","","250","140","140","25","33","0",""
"null","null","clear_screen","canvas-keyboard-response","328","4462796","0.0-11.0-1.158","117","2022-4-4","10:45:58","1","19","[""White""]","No","Female","4805897","","","","","","","","250","140","140","25","33","",""
"1617","4","rating","canvas-keyboard-response","329","4464425","0.0-11.0-0.159","117","2022-4-4","10:45:58","1","19","[""White""]","No","Female","4805897","","","","","","","","219","57","57","25","40","1",""
"null","null","clear_screen","canvas-keyboard-response","330","4464684","0.0-11.0-1.159","117","2022-4-4","10:45:58","1","19","[""White""]","No","Female","4805897","","","","","","","","219","57","57","25","40","",""
"1675","8","rating","canvas-keyboard-response","331","4466369","0.0-11.0-0.160","117","2022-4-4","10:45:58","1","19","[""White""]","No","Female","4805897","","","","","","","","105","140","140","10","33","0",""
"null","null","clear_screen","canvas-keyboard-response","332","4466630","0.0-11.0-1.160","117","2022-4-4","10:45:58","1","19","[""White""]","No","Female","4805897","","","","","","","","105","140","140","10","33","",""
"1840","6","rating","canvas-keyboard-response","333","4468481","0.0-11.0-0.161","117","2022-4-4","10:45:58","1","19","[""White""]","No","Female","4805897","","","","","","","","150","85","30","17","25","1",""
"null","null","clear_screen","canvas-keyboard-response","334","4468739","0.0-11.0-1.161","117","2022-4-4","10:45:58","1","19","[""White""]","No","Female","4805897","","","","","","","","150","85","30","17","25","",""
"1363","1","rating","canvas-keyboard-response","335","4470112","0.0-11.0-0.162","117","2022-4-4","10:45:58","1","19","[""White""]","No","Female","4805897","","","","","","","","192","140","57","17","40","0",""
"null","null","clear_screen","canvas-keyboard-response","336","4470372","0.0-11.0-1.162","117","2022-4-4","10:45:58","1","19","[""White""]","No","Female","4805897","","","","","","","","192","140","57","17","40","",""
"1834","1","rating","canvas-keyboard-response","337","4472217","0.0-11.0-0.163","117","2022-4-4","10:45:58","1","19","[""White""]","No","Female","4805897","","","","","","","","94","140","113","10","17","0",""
"null","null","clear_screen","canvas-keyboard-response","338","4472475","0.0-11.0-1.163","117","2022-4-4","10:45:58","1","19","[""White""]","No","Female","4805897","","","","","","","","94","140","113","10","17","",""
"1714","7","rating","canvas-keyboard-response","339","4474200","0.0-11.0-0.164","117","2022-4-4","10:45:58","1","19","[""White""]","No","Female","4805897","","","","","","","","255","140","140","25","40","1",""
"null","null","clear_screen","canvas-keyboard-response","340","4474460","0.0-11.0-1.164","117","2022-4-4","10:45:58","1","19","[""White""]","No","Female","4805897","","","","","","","","255","140","140","25","40","",""
"2223","8","rating","canvas-keyboard-response","341","4476696","0.0-11.0-0.165","117","2022-4-4","10:45:58","1","19","[""White""]","No","Female","4805897","","","","","","","","169","113","113","17","25","1",""
"null","null","clear_screen","canvas-keyboard-response","342","4476955","0.0-11.0-1.165","117","2022-4-4","10:45:58","1","19","[""White""]","No","Female","4805897","","","","","","","","169","113","113","17","25","",""
"1651","8","rating","canvas-keyboard-response","343","4478616","0.0-11.0-0.166","117","2022-4-4","10:45:58","1","19","[""White""]","No","Female","4805897","","","","","","","","297","57","140","40","40","0",""
"null","null","clear_screen","canvas-keyboard-response","344","4478875","0.0-11.0-1.166","117","2022-4-4","10:45:58","1","19","[""White""]","No","Female","4805897","","","","","","","","297","57","140","40","40","",""
"1559","1","rating","canvas-keyboard-response","345","4480448","0.0-11.0-0.167","117","2022-4-4","10:45:58","1","19","[""White""]","No","Female","4805897","","","","","","","","54","85","140","10","17","1",""
"null","null","clear_screen","canvas-keyboard-response","346","4480708","0.0-11.0-1.167","117","2022-4-4","10:45:58","1","19","[""White""]","No","Female","4805897","","","","","","","","54","85","140","10","17","",""
"1433","7","rating","canvas-keyboard-response","347","4482152","0.0-11.0-0.168","117","2022-4-4","10:45:58","1","19","[""White""]","No","Female","4805897","","","","","","","","278","85","113","33","40","1",""
"null","null","clear_screen","canvas-keyboard-response","348","4482414","0.0-11.0-1.168","117","2022-4-4","10:45:58","1","19","[""White""]","No","Female","4805897","","","","","","","","278","85","113","33","40","",""
"1412","4","rating","canvas-keyboard-response","349","4483840","0.0-11.0-0.169","117","2022-4-4","10:45:58","1","19","[""White""]","No","Female","4805897","","","","","","","","151","85","57","17","25","1",""
"null","null","clear_screen","canvas-keyboard-response","350","4484099","0.0-11.0-1.169","117","2022-4-4","10:45:58","1","19","[""White""]","No","Female","4805897","","","","","","","","151","85","57","17","25","",""
"1795","1","rating","canvas-keyboard-response","351","4485905","0.0-11.0-0.170","117","2022-4-4","10:45:58","1","19","[""White""]","No","Female","4805897","","","","","","","","191","140","30","17","40","1",""
"null","null","clear_screen","canvas-keyboard-response","352","4486164","0.0-11.0-1.170","117","2022-4-4","10:45:58","1","19","[""White""]","No","Female","4805897","","","","","","","","191","140","30","17","40","",""
"1129","1","rating","canvas-keyboard-response","353","4487304","0.0-11.0-0.171","117","2022-4-4","10:45:58","1","19","[""White""]","No","Female","4805897","","","","","","","","13","30","113","10","25","1",""
"null","null","clear_screen","canvas-keyboard-response","354","4487564","0.0-11.0-1.171","117","2022-4-4","10:45:58","1","19","[""White""]","No","Female","4805897","","","","","","","","13","30","113","10","25","",""
"1235","4","rating","canvas-keyboard-response","355","4488807","0.0-11.0-0.172","117","2022-4-4","10:45:58","1","19","[""White""]","No","Female","4805897","","","","","","","","111","30","57","17","17","0",""
"null","null","clear_screen","canvas-keyboard-response","356","4489065","0.0-11.0-1.172","117","2022-4-4","10:45:58","1","19","[""White""]","No","Female","4805897","","","","","","","","111","30","57","17","17","",""
"1350","1","rating","canvas-keyboard-response","357","4490424","0.0-11.0-0.173","117","2022-4-4","10:45:58","1","19","[""White""]","No","Female","4805897","","","","","","","","14","30","140","10","25","0",""
"null","null","clear_screen","canvas-keyboard-response","358","4490685","0.0-11.0-1.173","117","2022-4-4","10:45:58","1","19","[""White""]","No","Female","4805897","","","","","","","","14","30","140","10","25","",""
"3245","8","rating","canvas-keyboard-response","359","4493945","0.0-11.0-0.174","117","2022-4-4","10:45:58","1","19","[""White""]","No","Female","4805897","","","","","","","","48","85","113","10","10","1",""
"null","null","clear_screen","canvas-keyboard-response","360","4494205","0.0-11.0-1.174","117","2022-4-4","10:45:58","1","19","[""White""]","No","Female","4805897","","","","","","","","48","85","113","10","10","",""
"2719","5","rating","canvas-keyboard-response","361","4496937","0.0-11.0-0.175","117","2022-4-4","10:45:58","1","19","[""White""]","No","Female","4805897","","","","","","","","242","113","57","25","40","0",""
"null","null","clear_screen","canvas-keyboard-response","362","4497199","0.0-11.0-1.175","117","2022-4-4","10:45:58","1","19","[""White""]","No","Female","4805897","","","","","","","","242","113","57","25","40","",""
"4971","4","rating","canvas-keyboard-response","363","4502185","0.0-11.0-0.176","117","2022-4-4","10:45:58","1","19","[""White""]","No","Female","4805897","","","","","","","","9","30","140","10","17","1",""
"null","null","clear_screen","canvas-keyboard-response","364","4502445","0.0-11.0-1.176","117","2022-4-4","10:45:58","1","19","[""White""]","No","Female","4805897","","","","","","","","9","30","140","10","17","",""
"1311","8","rating","canvas-keyboard-response","365","4503768","0.0-11.0-0.177","117","2022-4-4","10:45:58","1","19","[""White""]","No","Female","4805897","","","","","","","","298","85","113","40","40","1",""
"null","null","clear_screen","canvas-keyboard-response","366","4504030","0.0-11.0-1.177","117","2022-4-4","10:45:58","1","19","[""White""]","No","Female","4805897","","","","","","","","298","85","113","40","40","",""
"1094","1","rating","canvas-keyboard-response","367","4505137","0.0-11.0-0.178","117","2022-4-4","10:45:58","1","19","[""White""]","No","Female","4805897","","","","","","","","180","113","140","17","40","0",""
"null","null","clear_screen","canvas-keyboard-response","368","4505395","0.0-11.0-1.178","117","2022-4-4","10:45:58","1","19","[""White""]","No","Female","4805897","","","","","","","","180","113","140","17","40","",""
"1915","7","rating","canvas-keyboard-response","369","4507321","0.0-11.0-0.179","117","2022-4-4","10:45:58","1","19","[""White""]","No","Female","4805897","","","","","","","","254","140","113","25","40","0",""
"null","null","clear_screen","canvas-keyboard-response","370","4507583","0.0-11.0-1.179","117","2022-4-4","10:45:58","1","19","[""White""]","No","Female","4805897","","","","","","","","254","140","113","25","40","",""
"4539","3","rating","canvas-keyboard-response","371","4512137","0.0-11.0-0.180","117","2022-4-4","10:45:58","1","19","[""White""]","No","Female","4805897","","","","","","","","133","57","30","17","25","0",""
"23","4","clear_screen","canvas-keyboard-response","372","4512169","0.0-11.0-1.180","117","2022-4-4","10:45:58","1","19","[""White""]","No","Female","4805897","","","","","","","","133","57","30","17","25","",""
"2471","1","rating","canvas-keyboard-response","373","4514648","0.0-11.0-0.181","117","2022-4-4","10:45:58","1","19","[""White""]","No","Female","4805897","","","","","","","","222","57","140","25","40","0",""
"null","null","clear_screen","canvas-keyboard-response","374","4514907","0.0-11.0-1.181","117","2022-4-4","10:45:58","1","19","[""White""]","No","Female","4805897","","","","","","","","222","57","140","25","40","",""
"2019","6","rating","canvas-keyboard-response","375","4516936","0.0-11.0-0.182","117","2022-4-4","10:45:58","1","19","[""White""]","No","Female","4805897","","","","","","","","274","85","140","33","33","1",""
"null","null","clear_screen","canvas-keyboard-response","376","4517195","0.0-11.0-1.182","117","2022-4-4","10:45:58","1","19","[""White""]","No","Female","4805897","","","","","","","","274","85","140","33","33","",""
"1779","2","rating","canvas-keyboard-response","377","4518984","0.0-11.0-0.183","117","2022-4-4","10:45:58","1","19","[""White""]","No","Female","4805897","","","","","","","","205","30","30","25","40","1",""
"null","null","clear_screen","canvas-keyboard-response","378","4519243","0.0-11.0-1.183","117","2022-4-4","10:45:58","1","19","[""White""]","No","Female","4805897","","","","","","","","205","30","30","25","40","",""
"1706","2","rating","canvas-keyboard-response","379","4520960","0.0-11.0-0.184","117","2022-4-4","10:45:58","1","19","[""White""]","No","Female","4805897","","","","","","","","129","30","140","17","40","1",""
"null","null","clear_screen","canvas-keyboard-response","380","4521219","0.0-11.0-1.184","117","2022-4-4","10:45:58","1","19","[""White""]","No","Female","4805897","","","","","","","","129","30","140","17","40","",""
"3495","9","rating","canvas-keyboard-response","381","4524728","0.0-11.0-0.185","117","2022-4-4","10:45:58","1","19","[""White""]","No","Female","4805897","","","","","","","","200","30","30","25","33","1",""
"null","null","clear_screen","canvas-keyboard-response","382","4524987","0.0-11.0-1.185","117","2022-4-4","10:45:58","1","19","[""White""]","No","Female","4805897","","","","","","","","200","30","30","25","33","",""
"1551","1","rating","canvas-keyboard-response","383","4526552","0.0-11.0-0.186","117","2022-4-4","10:45:58","1","19","[""White""]","No","Female","4805897","","","","","","","","75","113","140","10","17","1",""
"null","null","clear_screen","canvas-keyboard-response","384","4526814","0.0-11.0-1.186","117","2022-4-4","10:45:58","1","19","[""White""]","No","Female","4805897","","","","","","","","75","113","140","10","17","",""
"1023","1","rating","canvas-keyboard-response","385","4527848","0.0-11.0-0.187","117","2022-4-4","10:45:58","1","19","[""White""]","No","Female","4805897","","","","","","","","193","140","85","17","40","1",""
"null","null","clear_screen","canvas-keyboard-response","386","4528107","0.0-11.0-1.187","117","2022-4-4","10:45:58","1","19","[""White""]","No","Female","4805897","","","","","","","","193","140","85","17","40","",""
"1803","8","rating","canvas-keyboard-response","387","4529920","0.0-11.0-0.188","117","2022-4-4","10:45:58","1","19","[""White""]","No","Female","4805897","","","","","","","","227","85","85","25","33","0",""
"null","null","clear_screen","canvas-keyboard-response","388","4530182","0.0-11.0-1.188","117","2022-4-4","10:45:58","1","19","[""White""]","No","Female","4805897","","","","","","","","227","85","85","25","33","",""
"2092","6","rating","canvas-keyboard-response","389","4532289","0.0-11.0-0.189","117","2022-4-4","10:45:58","1","19","[""White""]","No","Female","4805897","","","","","","","","125","30","30","17","40","1",""
"null","null","clear_screen","canvas-keyboard-response","390","4532546","0.0-11.0-1.189","117","2022-4-4","10:45:58","1","19","[""White""]","No","Female","4805897","","","","","","","","125","30","30","17","40","",""
"2099","7","rating","canvas-keyboard-response","391","4534656","0.0-11.0-0.190","117","2022-4-4","10:45:58","1","19","[""White""]","No","Female","4805897","","","","","","","","292","30","85","40","40","0",""
"null","null","clear_screen","canvas-keyboard-response","392","4534914","0.0-11.0-1.190","117","2022-4-4","10:45:58","1","19","[""White""]","No","Female","4805897","","","","","","","","292","30","85","40","40","",""
"1449","7","rating","canvas-keyboard-response","393","4536376","0.0-11.0-0.191","117","2022-4-4","10:45:58","1","19","[""White""]","No","Female","4805897","","","","","","","","113","30","113","17","17","0",""
"null","null","clear_screen","canvas-keyboard-response","394","4536640","0.0-11.0-1.191","117","2022-4-4","10:45:58","1","19","[""White""]","No","Female","4805897","","","","","","","","113","30","113","17","17","",""
"1493","7","rating","canvas-keyboard-response","395","4538144","0.0-11.0-0.192","117","2022-4-4","10:45:58","1","19","[""White""]","No","Female","4805897","","","","","","","","112","30","85","17","17","1",""
"null","null","clear_screen","canvas-keyboard-response","396","4538401","0.0-11.0-1.192","117","2022-4-4","10:45:58","1","19","[""White""]","No","Female","4805897","","","","","","","","112","30","85","17","17","",""
"2100","6","rating","canvas-keyboard-response","397","4540513","0.0-11.0-0.193","117","2022-4-4","10:45:58","1","19","[""White""]","No","Female","4805897","","","","","","","","204","30","140","25","33","1",""
"null","null","clear_screen","canvas-keyboard-response","398","4540776","0.0-11.0-1.193","117","2022-4-4","10:45:58","1","19","[""White""]","No","Female","4805897","","","","","","","","204","30","140","25","33","",""
"1002","6","rating","canvas-keyboard-response","399","4541793","0.0-11.0-0.194","117","2022-4-4","10:45:58","1","19","[""White""]","No","Female","4805897","","","","","","","","279","85","140","33","40","1",""
"null","null","clear_screen","canvas-keyboard-response","400","4542052","0.0-11.0-1.194","117","2022-4-4","10:45:58","1","19","[""White""]","No","Female","4805897","","","","","","","","279","85","140","33","40","",""
"2317","4","rating","canvas-keyboard-response","401","4544385","0.0-11.0-0.195","117","2022-4-4","10:45:58","1","19","[""White""]","No","Female","4805897","","","","","","","","155","85","30","17","33","0",""
"null","null","clear_screen","canvas-keyboard-response","402","4544646","0.0-11.0-1.195","117","2022-4-4","10:45:58","1","19","[""White""]","No","Female","4805897","","","","","","","","155","85","30","17","33","",""
"955","4","rating","canvas-keyboard-response","403","4545617","0.0-11.0-0.196","117","2022-4-4","10:45:58","1","19","[""White""]","No","Female","4805897","","","","","","","","221","57","113","25","40","1",""
"null","null","clear_screen","canvas-keyboard-response","404","4545876","0.0-11.0-1.196","117","2022-4-4","10:45:58","1","19","[""White""]","No","Female","4805897","","","","","","","","221","57","113","25","40","",""
"1305","3","rating","canvas-keyboard-response","405","4547193","0.0-11.0-0.197","117","2022-4-4","10:45:58","1","19","[""White""]","No","Female","4805897","","","","","","","","184","140","113","17","25","1",""
"null","null","clear_screen","canvas-keyboard-response","406","4547452","0.0-11.0-1.197","117","2022-4-4","10:45:58","1","19","[""White""]","No","Female","4805897","","","","","","","","184","140","113","17","25","",""
"1641","5","rating","canvas-keyboard-response","407","4549105","0.0-11.0-0.198","117","2022-4-4","10:45:58","1","19","[""White""]","No","Female","4805897","","","","","","","","132","57","140","17","17","0",""
"null","null","clear_screen","canvas-keyboard-response","408","4549366","0.0-11.0-1.198","117","2022-4-4","10:45:58","1","19","[""White""]","No","Female","4805897","","","","","","","","132","57","140","17","17","",""
"1484","2","rating","canvas-keyboard-response","409","4550864","0.0-11.0-0.199","117","2022-4-4","10:45:58","1","19","[""White""]","No","Female","4805897","","","","","","","","83","113","85","10","33","0",""
"null","null","clear_screen","canvas-keyboard-response","410","4551125","0.0-11.0-1.199","117","2022-4-4","10:45:58","1","19","[""White""]","No","Female","4805897","","","","","","","","83","113","85","10","33","",""
"1542","7","rating","canvas-keyboard-response","411","4552681","0.0-11.0-0.200","117","2022-4-4","10:45:58","1","19","[""White""]","No","Female","4805897","","","","","","","","247","140","57","25","33","0",""
"null","null","clear_screen","canvas-keyboard-response","412","4552939","0.0-11.0-1.200","117","2022-4-4","10:45:58","1","19","[""White""]","No","Female","4805897","","","","","","","","247","140","57","25","33","",""
"1951","6","rating","canvas-keyboard-response","413","4554905","0.0-11.0-0.201","117","2022-4-4","10:45:58","1","19","[""White""]","No","Female","4805897","","","","","","","","218","57","30","25","40","0",""
"null","null","clear_screen","canvas-keyboard-response","414","4555166","0.0-11.0-1.201","117","2022-4-4","10:45:58","1","19","[""White""]","No","Female","4805897","","","","","","","","218","57","30","25","40","",""
"2299","1","rating","canvas-keyboard-response","415","4557480","0.0-11.0-0.202","117","2022-4-4","10:45:58","1","19","[""White""]","No","Female","4805897","","","","","","","","86","113","30","10","40","1",""
"null","null","clear_screen","canvas-keyboard-response","416","4557740","0.0-11.0-1.202","117","2022-4-4","10:45:58","1","19","[""White""]","No","Female","4805897","","","","","","","","86","113","30","10","40","",""
"2085","8","rating","canvas-keyboard-response","417","4559841","0.0-11.0-0.203","117","2022-4-4","10:45:58","1","19","[""White""]","No","Female","4805897","","","","","","","","293","30","113","40","40","1",""
"null","null","clear_screen","canvas-keyboard-response","418","4560103","0.0-11.0-1.203","117","2022-4-4","10:45:58","1","19","[""White""]","No","Female","4805897","","","","","","","","293","30","113","40","40","",""
"1679","8","rating","canvas-keyboard-response","419","4561792","0.0-11.0-0.204","117","2022-4-4","10:45:58","1","19","[""White""]","No","Female","4805897","","","","","","","","281","113","30","33","40","1",""
"null","null","clear_screen","canvas-keyboard-response","420","4562052","0.0-11.0-1.204","117","2022-4-4","10:45:58","1","19","[""White""]","No","Female","4805897","","","","","","","","281","113","30","33","40","",""
"5114","1","rating","canvas-keyboard-response","421","4567176","0.0-11.0-0.205","117","2022-4-4","10:45:58","1","19","[""White""]","No","Female","4805897","","","","","","","","7","30","85","10","17","1",""
"null","null","clear_screen","canvas-keyboard-response","422","4567435","0.0-11.0-1.205","117","2022-4-4","10:45:58","1","19","[""White""]","No","Female","4805897","","","","","","","","7","30","85","10","17","",""
"1659","1","rating","canvas-keyboard-response","423","4569104","0.0-11.0-0.206","117","2022-4-4","10:45:58","1","19","[""White""]","No","Female","4805897","","","","","","","","78","113","85","10","25","1",""
"null","null","clear_screen","canvas-keyboard-response","424","4569366","0.0-11.0-1.206","117","2022-4-4","10:45:58","1","19","[""White""]","No","Female","4805897","","","","","","","","78","113","85","10","25","",""
"1433","6","rating","canvas-keyboard-response","425","4570807","0.0-11.0-0.207","117","2022-4-4","10:45:58","1","19","[""White""]","No","Female","4805897","","","","","","","","156","85","57","17","33","0",""
"null","null","clear_screen","canvas-keyboard-response","426","4571069","0.0-11.0-1.207","117","2022-4-4","10:45:58","1","19","[""White""]","No","Female","4805897","","","","","","","","156","85","57","17","33","",""
"2691","9","rating","canvas-keyboard-response","427","4573776","0.0-11.0-0.208","117","2022-4-4","10:45:58","1","19","[""White""]","No","Female","4805897","","","","","","","","165","113","140","17","17","1",""
"null","null","clear_screen","canvas-keyboard-response","428","4574039","0.0-11.0-1.208","117","2022-4-4","10:45:58","1","19","[""White""]","No","Female","4805897","","","","","","","","165","113","140","17","17","",""
"1732","3","rating","canvas-keyboard-response","429","4575784","0.0-11.0-0.209","117","2022-4-4","10:45:58","1","19","[""White""]","No","Female","4805897","","","","","","","","28","57","30","10","17","1",""
"null","null","clear_screen","canvas-keyboard-response","430","4576045","0.0-11.0-1.209","117","2022-4-4","10:45:58","1","19","[""White""]","No","Female","4805897","","","","","","","","28","57","30","10","17","",""
"1904","6","rating","canvas-keyboard-response","431","4577961","0.0-11.0-0.210","117","2022-4-4","10:45:58","1","19","[""White""]","No","Female","4805897","","","","","","","","203","30","113","25","33","0",""
"null","null","clear_screen","canvas-keyboard-response","432","4578222","0.0-11.0-1.210","117","2022-4-4","10:45:58","1","19","[""White""]","No","Female","4805897","","","","","","","","203","30","113","25","33","",""
"4640","6","rating","canvas-keyboard-response","433","4582873","0.0-11.0-0.211","117","2022-4-4","10:45:58","1","19","[""White""]","No","Female","4805897","","","","","","","","240","113","140","25","33","0",""
"null","null","clear_screen","canvas-keyboard-response","434","4583132","0.0-11.0-1.211","117","2022-4-4","10:45:58","1","19","[""White""]","No","Female","4805897","","","","","","","","240","113","140","25","33","",""
"1271","1","rating","canvas-keyboard-response","435","4584417","0.0-11.0-0.212","117","2022-4-4","10:45:58","1","19","[""White""]","No","Female","4805897","","","","","","","","101","140","30","10","33","0",""
"null","null","clear_screen","canvas-keyboard-response","436","4584679","0.0-11.0-1.212","117","2022-4-4","10:45:58","1","19","[""White""]","No","Female","4805897","","","","","","","","101","140","30","10","33","",""
"1238","7","rating","canvas-keyboard-response","437","4585928","0.0-11.0-0.213","117","2022-4-4","10:45:58","1","19","[""White""]","No","Female","4805897","","","","","","","","258","30","113","33","33","0",""
"null","null","clear_screen","canvas-keyboard-response","438","4586191","0.0-11.0-1.213","117","2022-4-4","10:45:58","1","19","[""White""]","No","Female","4805897","","","","","","","","258","30","113","33","33","",""
"1371","2","rating","canvas-keyboard-response","439","4587577","0.0-11.0-0.214","117","2022-4-4","10:45:58","1","19","[""White""]","No","Female","4805897","","","","","","","","11","30","57","10","25","0",""
"null","null","clear_screen","canvas-keyboard-response","440","4587837","0.0-11.0-1.214","117","2022-4-4","10:45:58","1","19","[""White""]","No","Female","4805897","","","","","","","","11","30","57","10","25","",""
"1583","4","rating","canvas-keyboard-response","441","4589432","0.0-11.0-0.215","117","2022-4-4","10:45:58","1","19","[""White""]","No","Female","4805897","","","","","","","","280","113","140","33","33","0",""
"null","null","clear_screen","canvas-keyboard-response","442","4589690","0.0-11.0-1.215","117","2022-4-4","10:45:58","1","19","[""White""]","No","Female","4805897","","","","","","","","280","113","140","33","33","",""
"1667","1","rating","canvas-keyboard-response","443","4591369","0.0-11.0-0.216","117","2022-4-4","10:45:58","1","19","[""White""]","No","Female","4805897","","","","","","","","89","113","113","10","40","0",""
"null","null","clear_screen","canvas-keyboard-response","444","4591627","0.0-11.0-1.216","117","2022-4-4","10:45:58","1","19","[""White""]","No","Female","4805897","","","","","","","","89","113","113","10","40","",""
"936","1","rating","canvas-keyboard-response","445","4592576","0.0-11.0-0.217","117","2022-4-4","10:45:58","1","19","[""White""]","No","Female","4805897","","","","","","","","21","30","57","10","40","0",""
"null","null","clear_screen","canvas-keyboard-response","446","4592836","0.0-11.0-1.217","117","2022-4-4","10:45:58","1","19","[""White""]","No","Female","4805897","","","","","","","","21","30","57","10","40","",""
"1145","5","rating","canvas-keyboard-response","447","4593992","0.0-11.0-0.218","117","2022-4-4","10:45:58","1","19","[""White""]","No","Female","4805897","","","","","","","","202","30","85","25","33","1",""
"null","null","clear_screen","canvas-keyboard-response","448","4594251","0.0-11.0-1.218","117","2022-4-4","10:45:58","1","19","[""White""]","No","Female","4805897","","","","","","","","202","30","85","25","33","",""
"1509","7","rating","canvas-keyboard-response","449","4595776","0.0-11.0-0.219","117","2022-4-4","10:45:58","1","19","[""White""]","No","Female","4805897","","","","","","","","140","57","85","17","33","1",""
"null","null","clear_screen","canvas-keyboard-response","450","4596038","0.0-11.0-1.219","117","2022-4-4","10:45:58","1","19","[""White""]","No","Female","4805897","","","","","","","","140","57","85","17","33","",""
"1366","1","rating","canvas-keyboard-response","451","4597416","0.0-11.0-0.220","117","2022-4-4","10:45:58","1","19","[""White""]","No","Female","4805897","","","","","","","","164","85","140","17","40","0",""
"null","null","clear_screen","canvas-keyboard-response","452","4597678","0.0-11.0-1.220","117","2022-4-4","10:45:58","1","19","[""White""]","No","Female","4805897","","","","","","","","164","85","140","17","40","",""
"1572","6","rating","canvas-keyboard-response","453","4599264","0.0-11.0-0.221","117","2022-4-4","10:45:58","1","19","[""White""]","No","Female","4805897","","","","","","","","115","30","30","17","25","1",""
"null","null","clear_screen","canvas-keyboard-response","454","4599526","0.0-11.0-1.221","117","2022-4-4","10:45:58","1","19","[""White""]","No","Female","4805897","","","","","","","","115","30","30","17","25","",""
"1475","6","rating","canvas-keyboard-response","455","4601017","0.0-11.0-0.222","117","2022-4-4","10:45:58","1","19","[""White""]","No","Female","4805897","","","","","","","","40","57","85","10","33","0",""
"null","null","clear_screen","canvas-keyboard-response","456","4601275","0.0-11.0-1.222","117","2022-4-4","10:45:58","1","19","[""White""]","No","Female","4805897","","","","","","","","40","57","85","10","33","",""
"2640","7","rating","canvas-keyboard-response","457","4603928","0.0-11.0-0.223","117","2022-4-4","10:45:58","1","19","[""White""]","No","Female","4805897","","","","","","","","99","140","113","10","25","1",""
"null","null","clear_screen","canvas-keyboard-response","458","4604187","0.0-11.0-1.223","117","2022-4-4","10:45:58","1","19","[""White""]","No","Female","4805897","","","","","","","","99","140","113","10","25","",""
"1880","6","rating","canvas-keyboard-response","459","4606080","0.0-11.0-0.224","117","2022-4-4","10:45:58","1","19","[""White""]","No","Female","4805897","","","","","","","","131","57","113","17","17","0",""
"null","null","clear_screen","canvas-keyboard-response","460","4606342","0.0-11.0-1.224","117","2022-4-4","10:45:58","1","19","[""White""]","No","Female","4805897","","","","","","","","131","57","113","17","17","",""
"1839","4","rating","canvas-keyboard-response","461","4608192","0.0-11.0-0.225","117","2022-4-4","10:45:58","1","19","[""White""]","No","Female","4805897","","","","","","","","32","57","140","10","17","0",""
"null","null","clear_screen","canvas-keyboard-response","462","4608454","0.0-11.0-1.225","117","2022-4-4","10:45:58","1","19","[""White""]","No","Female","4805897","","","","","","","","32","57","140","10","17","",""
"2143","5","rating","canvas-keyboard-response","463","4610608","0.0-11.0-0.226","117","2022-4-4","10:45:58","1","19","[""White""]","No","Female","4805897","","","","","","","","85","113","140","10","33","0",""
