"rt","response","trialType","trial_type","trial_index","time_elapsed","internal_node_id","sub_n","date","time","leftRight","age","race","ethnicity","gender","exp_duration","success","timeout","failed_images","failed_audio","failed_video","stimulus","view_history","trialID","radius_a","radius_b","angle_a","angle_b","lrCond","question_order"
"3222","{""response"":""109""}","enter-sub-number","survey-html-form","0","3333","0.0-0.0","109","2022-3-25","15:49:28","1","19","[""White""]","No","Female","1107775","","","","","","","","","","","","","",""
"","","","fullscreen","1","5818","0.0-1.0","109","2022-3-25","15:49:28","1","19","[""White""]","No","Female","1107775","true","","","","","","","","","","","","",""
"","","","preload","2","5865","0.0-2.0","109","2022-3-25","15:49:28","1","19","[""White""]","No","Female","1107775","true","false","[]","[]","[]","","","","","","","","",""
"14617","0","","html-button-response","3","20483","0.0-3.0","109","2022-3-25","15:49:28","1","19","[""White""]","No","Female","1107775","","","","","","<div style= ""font-size:25px;"" <p> <strong> Welcome to the experiment! </strong><br> <p style=""color:#8B0000; font-size:25px;""><strong> Please do NOT exit full screen until you are done with the experiment. </strong> </p><p style=""font-size:25px;color:#8B0000;""> <strong> The experiment will be canceled and your data will be lost <br> if you try to go back or refresh the page at any point during the experiment.</strong> </p><br><p> <strong> Thanks in advance for your contribution to our research! </strong></p>","","","","","","","",""
"33521","","","instructions","4","54007","0.0-4.0","109","2022-3-25","15:49:28","1","19","[""White""]","No","Female","1107775","","","","","","","[{""page_index"":0,""viewing_time"":8960},{""page_index"":1,""viewing_time"":14426},{""page_index"":2,""viewing_time"":10134}]","","","","","","",""
"null","null","presentPop","canvas-keyboard-response","5","70051","0.0-5.0","109","2022-3-25","15:49:28","1","19","[""White""]","No","Female","1107775","","","","","","","","","","","","","",""
"null","null","clear_screen","canvas-keyboard-response","6","70818","0.0-6.0","109","2022-3-25","15:49:28","1","19","[""White""]","No","Female","1107775","","","","","","","","","","","","","",""
"3878","","","instructions","7","74698","0.0-7.0","109","2022-3-25","15:49:28","1","19","[""White""]","No","Female","1107775","","","","","","","[{""page_index"":0,""viewing_time"":3878}]","","","","","","",""
"null","null","presentPop","canvas-keyboard-response","8","90714","0.0-8.0","109","2022-3-25","15:49:28","1","19","[""White""]","No","Female","1107775","","","","","","","","","","","","","",""
"null","null","clear_screen","canvas-keyboard-response","9","91477","0.0-9.0","109","2022-3-25","15:49:28","1","19","[""White""]","No","Female","1107775","","","","","","","","","","","","","",""
"5756","","","instructions","10","97234","0.0-10.0","109","2022-3-25","15:49:28","1","19","[""White""]","No","Female","1107775","","","","","","","[{""page_index"":0,""viewing_time"":2940},{""page_index"":1,""viewing_time"":2815}]","","","","","","",""
"7925","5","rating","canvas-keyboard-response","11","106169","0.0-11.0-0.0","109","2022-3-25","15:49:28","1","19","[""White""]","No","Female","1107775","","","","","","","","7","30","85","10","17","1",""
"null","null","clear_screen","canvas-keyboard-response","12","106428","0.0-11.0-1.0","109","2022-3-25","15:49:28","1","19","[""White""]","No","Female","1107775","","","","","","","","7","30","85","10","17","",""
"3547","6","rating","canvas-keyboard-response","13","109985","0.0-11.0-0.1","109","2022-3-25","15:49:28","1","19","[""White""]","No","Female","1107775","","","","","","","","26","57","113","10","10","0",""
"null","null","clear_screen","canvas-keyboard-response","14","110242","0.0-11.0-1.1","109","2022-3-25","15:49:28","1","19","[""White""]","No","Female","1107775","","","","","","","","26","57","113","10","10","",""
"3264","6","rating","canvas-keyboard-response","15","113521","0.0-11.0-0.2","109","2022-3-25","15:49:28","1","19","[""White""]","No","Female","1107775","","","","","","","","297","57","140","40","40","0",""
"null","null","clear_screen","canvas-keyboard-response","16","113780","0.0-11.0-1.2","109","2022-3-25","15:49:28","1","19","[""White""]","No","Female","1107775","","","","","","","","297","57","140","40","40","",""
"3977","6","rating","canvas-keyboard-response","17","117770","0.0-11.0-0.3","109","2022-3-25","15:49:28","1","19","[""White""]","No","Female","1107775","","","","","","","","198","30","113","25","25","0",""
"null","null","clear_screen","canvas-keyboard-response","18","118031","0.0-11.0-1.3","109","2022-3-25","15:49:28","1","19","[""White""]","No","Female","1107775","","","","","","","","198","30","113","25","25","",""
"3827","4","rating","canvas-keyboard-response","19","121873","0.0-11.0-0.4","109","2022-3-25","15:49:28","1","19","[""White""]","No","Female","1107775","","","","","","","","122","30","85","17","33","1",""
"null","null","clear_screen","canvas-keyboard-response","20","122134","0.0-11.0-1.4","109","2022-3-25","15:49:28","1","19","[""White""]","No","Female","1107775","","","","","","","","122","30","85","17","33","",""
"2015","6","rating","canvas-keyboard-response","21","124161","0.0-11.0-0.5","109","2022-3-25","15:49:28","1","19","[""White""]","No","Female","1107775","","","","","","","","262","30","85","33","40","0",""
"null","null","clear_screen","canvas-keyboard-response","22","124419","0.0-11.0-1.5","109","2022-3-25","15:49:28","1","19","[""White""]","No","Female","1107775","","","","","","","","262","30","85","33","40","",""
"3800","9","rating","canvas-keyboard-response","23","128225","0.0-11.0-0.6","109","2022-3-25","15:49:28","1","19","[""White""]","No","Female","1107775","","","","","","","","48","85","113","10","10","1",""
"null","null","clear_screen","canvas-keyboard-response","24","128485","0.0-11.0-1.6","109","2022-3-25","15:49:28","1","19","[""White""]","No","Female","1107775","","","","","","","","48","85","113","10","10","",""
"1811","2","rating","canvas-keyboard-response","25","130312","0.0-11.0-0.7","109","2022-3-25","15:49:28","1","19","[""White""]","No","Female","1107775","","","","","","","","102","140","57","10","33","1",""
"null","null","clear_screen","canvas-keyboard-response","26","130573","0.0-11.0-1.7","109","2022-3-25","15:49:28","1","19","[""White""]","No","Female","1107775","","","","","","","","102","140","57","10","33","",""
"1963","7","rating","canvas-keyboard-response","27","132545","0.0-11.0-0.8","109","2022-3-25","15:49:28","1","19","[""White""]","No","Female","1107775","","","","","","","","165","113","140","17","17","1",""
"null","null","clear_screen","canvas-keyboard-response","28","132803","0.0-11.0-1.8","109","2022-3-25","15:49:28","1","19","[""White""]","No","Female","1107775","","","","","","","","165","113","140","17","17","",""
"6019","9","rating","canvas-keyboard-response","29","138833","0.0-11.0-0.9","109","2022-3-25","15:49:28","1","19","[""White""]","No","Female","1107775","","","","","","","","29","57","57","10","17","0",""
"null","null","clear_screen","canvas-keyboard-response","30","139091","0.0-11.0-1.9","109","2022-3-25","15:49:28","1","19","[""White""]","No","Female","1107775","","","","","","","","29","57","57","10","17","",""
"3458","3","rating","canvas-keyboard-response","31","142561","0.0-11.0-0.10","109","2022-3-25","15:49:28","1","19","[""White""]","No","Female","1107775","","","","","","","","230","85","30","25","40","0",""
"null","null","clear_screen","canvas-keyboard-response","32","142821","0.0-11.0-1.10","109","2022-3-25","15:49:28","1","19","[""White""]","No","Female","1107775","","","","","","","","230","85","30","25","40","",""
"2128","1","rating","canvas-keyboard-response","33","144959","0.0-11.0-0.11","109","2022-3-25","15:49:28","1","19","[""White""]","No","Female","1107775","","","","","","","","47","57","140","10","40","0",""
"null","null","clear_screen","canvas-keyboard-response","34","145216","0.0-11.0-1.11","109","2022-3-25","15:49:28","1","19","[""White""]","No","Female","1107775","","","","","","","","47","57","140","10","40","",""
"2714","5","rating","canvas-keyboard-response","35","147944","0.0-11.0-0.12","109","2022-3-25","15:49:28","1","19","[""White""]","No","Female","1107775","","","","","","","","44","57","57","10","40","1",""
"null","null","clear_screen","canvas-keyboard-response","36","148203","0.0-11.0-1.12","109","2022-3-25","15:49:28","1","19","[""White""]","No","Female","1107775","","","","","","","","44","57","57","10","40","",""
"3117","5","rating","canvas-keyboard-response","37","151329","0.0-11.0-0.13","109","2022-3-25","15:49:28","1","19","[""White""]","No","Female","1107775","","","","","","","","10","30","30","10","25","0",""
"null","null","clear_screen","canvas-keyboard-response","38","151587","0.0-11.0-1.13","109","2022-3-25","15:49:28","1","19","[""White""]","No","Female","1107775","","","","","","","","10","30","30","10","25","",""
"4130","6","rating","canvas-keyboard-response","39","155729","0.0-11.0-0.14","109","2022-3-25","15:49:28","1","19","[""White""]","No","Female","1107775","","","","","","","","1","30","57","10","10","0",""
"null","null","clear_screen","canvas-keyboard-response","40","155991","0.0-11.0-1.14","109","2022-3-25","15:49:28","1","19","[""White""]","No","Female","1107775","","","","","","","","1","30","57","10","10","",""
"1618","7","rating","canvas-keyboard-response","41","157617","0.0-11.0-0.15","109","2022-3-25","15:49:28","1","19","[""White""]","No","Female","1107775","","","","","","","","184","140","113","17","25","0",""
"null","null","clear_screen","canvas-keyboard-response","42","157876","0.0-11.0-1.15","109","2022-3-25","15:49:28","1","19","[""White""]","No","Female","1107775","","","","","","","","184","140","113","17","25","",""
"1418","7","rating","canvas-keyboard-response","43","159304","0.0-11.0-0.16","109","2022-3-25","15:49:28","1","19","[""White""]","No","Female","1107775","","","","","","","","298","85","113","40","40","1",""
"null","null","clear_screen","canvas-keyboard-response","44","159563","0.0-11.0-1.16","109","2022-3-25","15:49:28","1","19","[""White""]","No","Female","1107775","","","","","","","","298","85","113","40","40","",""
"1396","5","rating","canvas-keyboard-response","45","160969","0.0-11.0-0.17","109","2022-3-25","15:49:28","1","19","[""White""]","No","Female","1107775","","","","","","","","104","140","113","10","33","0",""
"null","null","clear_screen","canvas-keyboard-response","46","161231","0.0-11.0-1.17","109","2022-3-25","15:49:28","1","19","[""White""]","No","Female","1107775","","","","","","","","104","140","113","10","33","",""
"2185","5","rating","canvas-keyboard-response","47","163425","0.0-11.0-0.18","109","2022-3-25","15:49:28","1","19","[""White""]","No","Female","1107775","","","","","","","","292","30","85","40","40","0",""
"null","null","clear_screen","canvas-keyboard-response","48","163682","0.0-11.0-1.18","109","2022-3-25","15:49:28","1","19","[""White""]","No","Female","1107775","","","","","","","","292","30","85","40","40","",""
"5580","5","rating","canvas-keyboard-response","49","169272","0.0-11.0-0.19","109","2022-3-25","15:49:28","1","19","[""White""]","No","Female","1107775","","","","","","","","287","140","57","33","40","0",""
"null","null","clear_screen","canvas-keyboard-response","50","169532","0.0-11.0-1.19","109","2022-3-25","15:49:28","1","19","[""White""]","No","Female","1107775","","","","","","","","287","140","57","33","40","",""
"1864","3","rating","canvas-keyboard-response","51","171409","0.0-11.0-0.20","109","2022-3-25","15:49:28","1","19","[""White""]","No","Female","1107775","","","","","","","","159","85","140","17","33","0",""
"null","null","clear_screen","canvas-keyboard-response","52","171670","0.0-11.0-1.20","109","2022-3-25","15:49:28","1","19","[""White""]","No","Female","1107775","","","","","","","","159","85","140","17","33","",""
"3141","4","rating","canvas-keyboard-response","53","174826","0.0-11.0-0.21","109","2022-3-25","15:49:28","1","19","[""White""]","No","Female","1107775","","","","","","","","158","85","113","17","33","1",""
"null","null","clear_screen","canvas-keyboard-response","54","175086","0.0-11.0-1.21","109","2022-3-25","15:49:28","1","19","[""White""]","No","Female","1107775","","","","","","","","158","85","113","17","33","",""
"3323","8","rating","canvas-keyboard-response","55","178424","0.0-11.0-0.22","109","2022-3-25","15:49:28","1","19","[""White""]","No","Female","1107775","","","","","","","","169","113","113","17","25","0",""
"null","null","clear_screen","canvas-keyboard-response","56","178685","0.0-11.0-1.22","109","2022-3-25","15:49:28","1","19","[""White""]","No","Female","1107775","","","","","","","","169","113","113","17","25","",""
"2111","6","rating","canvas-keyboard-response","57","180810","0.0-11.0-0.23","109","2022-3-25","15:49:28","1","19","[""White""]","No","Female","1107775","","","","","","","","51","85","57","10","17","0",""
"null","null","clear_screen","canvas-keyboard-response","58","181068","0.0-11.0-1.23","109","2022-3-25","15:49:28","1","19","[""White""]","No","Female","1107775","","","","","","","","51","85","57","10","17","",""
"3478","4","rating","canvas-keyboard-response","59","184561","0.0-11.0-0.24","109","2022-3-25","15:49:28","1","19","[""White""]","No","Female","1107775","","","","","","","","275","85","30","33","40","0",""
"null","null","clear_screen","canvas-keyboard-response","60","184826","0.0-11.0-1.24","109","2022-3-25","15:49:28","1","19","[""White""]","No","Female","1107775","","","","","","","","275","85","30","33","40","",""
"3073","1","rating","canvas-keyboard-response","61","187913","0.0-11.0-0.25","109","2022-3-25","15:49:28","1","19","[""White""]","No","Female","1107775","","","","","","","","191","140","30","17","40","0",""
"null","null","clear_screen","canvas-keyboard-response","62","188172","0.0-11.0-1.25","109","2022-3-25","15:49:28","1","19","[""White""]","No","Female","1107775","","","","","","","","191","140","30","17","40","",""
"2154","4","rating","canvas-keyboard-response","63","190336","0.0-11.0-0.26","109","2022-3-25","15:49:28","1","19","[""White""]","No","Female","1107775","","","","","","","","92","140","57","10","17","0",""
"null","null","clear_screen","canvas-keyboard-response","64","190597","0.0-11.0-1.26","109","2022-3-25","15:49:28","1","19","[""White""]","No","Female","1107775","","","","","","","","92","140","57","10","17","",""
"1674","4","rating","canvas-keyboard-response","65","192281","0.0-11.0-0.27","109","2022-3-25","15:49:28","1","19","[""White""]","No","Female","1107775","","","","","","","","58","85","113","10","25","1",""
"null","null","clear_screen","canvas-keyboard-response","66","192539","0.0-11.0-1.27","109","2022-3-25","15:49:28","1","19","[""White""]","No","Female","1107775","","","","","","","","58","85","113","10","25","",""
"1283","3","rating","canvas-keyboard-response","67","193833","0.0-11.0-0.28","109","2022-3-25","15:49:28","1","19","[""White""]","No","Female","1107775","","","","","","","","36","57","113","10","25","1",""
"null","null","clear_screen","canvas-keyboard-response","68","194092","0.0-11.0-1.28","109","2022-3-25","15:49:28","1","19","[""White""]","No","Female","1107775","","","","","","","","36","57","113","10","25","",""
"9963","3","rating","canvas-keyboard-response","69","204065","0.0-11.0-0.29","109","2022-3-25","15:49:28","1","19","[""White""]","No","Female","1107775","","","","","","","","180","113","140","17","40","0",""
"null","null","clear_screen","canvas-keyboard-response","70","204324","0.0-11.0-1.29","109","2022-3-25","15:49:28","1","19","[""White""]","No","Female","1107775","","","","","","","","180","113","140","17","40","",""
"4450","5","rating","canvas-keyboard-response","71","208785","0.0-11.0-0.30","109","2022-3-25","15:49:28","1","19","[""White""]","No","Female","1107775","","","","","","","","260","30","30","33","40","0",""
"null","null","clear_screen","canvas-keyboard-response","72","209046","0.0-11.0-1.30","109","2022-3-25","15:49:28","1","19","[""White""]","No","Female","1107775","","","","","","","","260","30","30","33","40","",""
"1467","3","rating","canvas-keyboard-response","73","210530","0.0-11.0-0.31","109","2022-3-25","15:49:28","1","19","[""White""]","No","Female","1107775","","","","","","","","254","140","113","25","40","1",""
"null","null","clear_screen","canvas-keyboard-response","74","210792","0.0-11.0-1.31","109","2022-3-25","15:49:28","1","19","[""White""]","No","Female","1107775","","","","","","","","254","140","113","25","40","",""
"1371","3","rating","canvas-keyboard-response","75","212177","0.0-11.0-0.32","109","2022-3-25","15:49:28","1","19","[""White""]","No","Female","1107775","","","","","","","","160","85","30","17","40","1",""
"null","null","clear_screen","canvas-keyboard-response","76","212439","0.0-11.0-1.32","109","2022-3-25","15:49:28","1","19","[""White""]","No","Female","1107775","","","","","","","","160","85","30","17","40","",""
"2694","3","rating","canvas-keyboard-response","77","215145","0.0-11.0-0.33","109","2022-3-25","15:49:28","1","19","[""White""]","No","Female","1107775","","","","","","","","116","30","57","17","25","0",""
"null","null","clear_screen","canvas-keyboard-response","78","215405","0.0-11.0-1.33","109","2022-3-25","15:49:28","1","19","[""White""]","No","Female","1107775","","","","","","","","116","30","57","17","25","",""
"4800","2","rating","canvas-keyboard-response","79","220218","0.0-11.0-0.34","109","2022-3-25","15:49:28","1","19","[""White""]","No","Female","1107775","","","","","","","","17","30","85","10","33","0",""
"null","null","clear_screen","canvas-keyboard-response","80","220479","0.0-11.0-1.34","109","2022-3-25","15:49:28","1","19","[""White""]","No","Female","1107775","","","","","","","","17","30","85","10","33","",""
"2577","2","rating","canvas-keyboard-response","81","223065","0.0-11.0-0.35","109","2022-3-25","15:49:28","1","19","[""White""]","No","Female","1107775","","","","","","","","151","85","57","17","25","1",""
"null","null","clear_screen","canvas-keyboard-response","82","223324","0.0-11.0-1.35","109","2022-3-25","15:49:28","1","19","[""White""]","No","Female","1107775","","","","","","","","151","85","57","17","25","",""
"3084","5","rating","canvas-keyboard-response","83","226418","0.0-11.0-0.36","109","2022-3-25","15:49:28","1","19","[""White""]","No","Female","1107775","","","","","","","","239","113","113","25","33","1",""
"null","null","clear_screen","canvas-keyboard-response","84","226677","0.0-11.0-1.36","109","2022-3-25","15:49:28","1","19","[""White""]","No","Female","1107775","","","","","","","","239","113","113","25","33","",""
"1704","2","rating","canvas-keyboard-response","85","228394","0.0-11.0-0.37","109","2022-3-25","15:49:28","1","19","[""White""]","No","Female","1107775","","","","","","","","9","30","140","10","17","1",""
"null","null","clear_screen","canvas-keyboard-response","86","228652","0.0-11.0-1.37","109","2022-3-25","15:49:28","1","19","[""White""]","No","Female","1107775","","","","","","","","9","30","140","10","17","",""
"3467","3","rating","canvas-keyboard-response","87","232129","0.0-11.0-0.38","109","2022-3-25","15:49:28","1","19","[""White""]","No","Female","1107775","","","","","","","","175","113","140","17","33","1",""
"null","null","clear_screen","canvas-keyboard-response","88","232387","0.0-11.0-1.38","109","2022-3-25","15:49:28","1","19","[""White""]","No","Female","1107775","","","","","","","","175","113","140","17","33","",""
"4867","3","rating","canvas-keyboard-response","89","237265","0.0-11.0-0.39","109","2022-3-25","15:49:28","1","19","[""White""]","No","Female","1107775","","","","","","","","85","113","140","10","33","1",""
"null","null","clear_screen","canvas-keyboard-response","90","237524","0.0-11.0-1.39","109","2022-3-25","15:49:28","1","19","[""White""]","No","Female","1107775","","","","","","","","85","113","140","10","33","",""
"2079","5","rating","canvas-keyboard-response","91","239617","0.0-11.0-0.40","109","2022-3-25","15:49:28","1","19","[""White""]","No","Female","1107775","","","","","","","","121","30","57","17","33","0",""
"null","null","clear_screen","canvas-keyboard-response","92","239875","0.0-11.0-1.40","109","2022-3-25","15:49:28","1","19","[""White""]","No","Female","1107775","","","","","","","","121","30","57","17","33","",""
"2114","5","rating","canvas-keyboard-response","93","242004","0.0-11.0-0.41","109","2022-3-25","15:49:28","1","19","[""White""]","No","Female","1107775","","","","","","","","72","113","57","10","17","0",""
"null","null","clear_screen","canvas-keyboard-response","94","242262","0.0-11.0-1.41","109","2022-3-25","15:49:28","1","19","[""White""]","No","Female","1107775","","","","","","","","72","113","57","10","17","",""
"2562","2","rating","canvas-keyboard-response","95","244841","0.0-11.0-0.42","109","2022-3-25","15:49:28","1","19","[""White""]","No","Female","1107775","","","","","","","","45","57","85","10","40","1",""
"null","null","clear_screen","canvas-keyboard-response","96","245100","0.0-11.0-1.42","109","2022-3-25","15:49:28","1","19","[""White""]","No","Female","1107775","","","","","","","","45","57","85","10","40","",""
"3616","5","rating","canvas-keyboard-response","97","248729","0.0-11.0-0.43","109","2022-3-25","15:49:28","1","19","[""White""]","No","Female","1107775","","","","","","","","201","30","57","25","33","1",""
"null","null","clear_screen","canvas-keyboard-response","98","248989","0.0-11.0-1.43","109","2022-3-25","15:49:28","1","19","[""White""]","No","Female","1107775","","","","","","","","201","30","57","25","33","",""
"1851","3","rating","canvas-keyboard-response","99","250850","0.0-11.0-0.44","109","2022-3-25","15:49:28","1","19","[""White""]","No","Female","1107775","","","","","","","","54","85","140","10","17","1",""
"null","null","clear_screen","canvas-keyboard-response","100","251108","0.0-11.0-1.44","109","2022-3-25","15:49:28","1","19","[""White""]","No","Female","1107775","","","","","","","","54","85","140","10","17","",""
"2063","7","rating","canvas-keyboard-response","101","253185","0.0-11.0-0.45","109","2022-3-25","15:49:28","1","19","[""White""]","No","Female","1107775","","","","","","","","278","85","113","33","40","1",""
"null","null","clear_screen","canvas-keyboard-response","102","253442","0.0-11.0-1.45","109","2022-3-25","15:49:28","1","19","[""White""]","No","Female","1107775","","","","","","","","278","85","113","33","40","",""
"1829","3","rating","canvas-keyboard-response","103","255282","0.0-11.0-0.46","109","2022-3-25","15:49:28","1","19","[""White""]","No","Female","1107775","","","","","","","","32","57","140","10","17","1",""
"null","null","clear_screen","canvas-keyboard-response","104","255541","0.0-11.0-1.46","109","2022-3-25","15:49:28","1","19","[""White""]","No","Female","1107775","","","","","","","","32","57","140","10","17","",""
"2089","8","rating","canvas-keyboard-response","105","257640","0.0-11.0-0.47","109","2022-3-25","15:49:28","1","19","[""White""]","No","Female","1107775","","","","","","","","283","113","85","33","40","0",""
"null","null","clear_screen","canvas-keyboard-response","106","257903","0.0-11.0-1.47","109","2022-3-25","15:49:28","1","19","[""White""]","No","Female","1107775","","","","","","","","283","113","85","33","40","",""
"1697","2","rating","canvas-keyboard-response","107","259608","0.0-11.0-0.48","109","2022-3-25","15:49:28","1","19","[""White""]","No","Female","1107775","","","","","","","","38","57","30","10","33","1",""
"null","null","clear_screen","canvas-keyboard-response","108","259868","0.0-11.0-1.48","109","2022-3-25","15:49:28","1","19","[""White""]","No","Female","1107775","","","","","","","","38","57","30","10","33","",""
"1554","2","rating","canvas-keyboard-response","109","261433","0.0-11.0-0.49","109","2022-3-25","15:49:28","1","19","[""White""]","No","Female","1107775","","","","","","","","252","140","57","25","40","1",""
"null","null","clear_screen","canvas-keyboard-response","110","261695","0.0-11.0-1.49","109","2022-3-25","15:49:28","1","19","[""White""]","No","Female","1107775","","","","","","","","252","140","57","25","40","",""
"2230","5","rating","canvas-keyboard-response","111","263936","0.0-11.0-0.50","109","2022-3-25","15:49:28","1","19","[""White""]","No","Female","1107775","","","","","","","","57","85","85","10","25","0",""
"null","null","clear_screen","canvas-keyboard-response","112","264194","0.0-11.0-1.50","109","2022-3-25","15:49:28","1","19","[""White""]","No","Female","1107775","","","","","","","","57","85","85","10","25","",""
"3288","5","rating","canvas-keyboard-response","113","267496","0.0-11.0-0.51","109","2022-3-25","15:49:28","1","19","[""White""]","No","Female","1107775","","","","","","","","296","57","113","40","40","1",""
"null","null","clear_screen","canvas-keyboard-response","114","267756","0.0-11.0-1.51","109","2022-3-25","15:49:28","1","19","[""White""]","No","Female","1107775","","","","","","","","296","57","113","40","40","",""
"2075","5","rating","canvas-keyboard-response","115","269841","0.0-11.0-0.52","109","2022-3-25","15:49:28","1","19","[""White""]","No","Female","1107775","","","","","","","","231","85","57","25","40","0",""
"null","null","clear_screen","canvas-keyboard-response","116","270103","0.0-11.0-1.52","109","2022-3-25","15:49:28","1","19","[""White""]","No","Female","1107775","","","","","","","","231","85","57","25","40","",""
"1632","3","rating","canvas-keyboard-response","117","271745","0.0-11.0-0.53","109","2022-3-25","15:49:28","1","19","[""White""]","No","Female","1107775","","","","","","","","279","85","140","33","40","0",""
"null","null","clear_screen","canvas-keyboard-response","118","272002","0.0-11.0-1.53","109","2022-3-25","15:49:28","1","19","[""White""]","No","Female","1107775","","","","","","","","279","85","140","33","40","",""
"2268","4","rating","canvas-keyboard-response","119","274281","0.0-11.0-0.54","109","2022-3-25","15:49:28","1","19","[""White""]","No","Female","1107775","","","","","","","","63","85","113","10","33","1",""
"null","null","clear_screen","canvas-keyboard-response","120","274542","0.0-11.0-1.54","109","2022-3-25","15:49:28","1","19","[""White""]","No","Female","1107775","","","","","","","","63","85","113","10","33","",""
"1943","2","rating","canvas-keyboard-response","121","276497","0.0-11.0-0.55","109","2022-3-25","15:49:28","1","19","[""White""]","No","Female","1107775","","","","","","","","43","57","30","10","40","1",""
"null","null","clear_screen","canvas-keyboard-response","122","276755","0.0-11.0-1.55","109","2022-3-25","15:49:28","1","19","[""White""]","No","Female","1107775","","","","","","","","43","57","30","10","40","",""
"4931","4","rating","canvas-keyboard-response","123","281695","0.0-11.0-0.56","109","2022-3-25","15:49:28","1","19","[""White""]","No","Female","1107775","","","","","","","","245","113","140","25","40","1",""
"null","null","clear_screen","canvas-keyboard-response","124","281957","0.0-11.0-1.56","109","2022-3-25","15:49:28","1","19","[""White""]","No","Female","1107775","","","","","","","","245","113","140","25","40","",""
"1857","2","rating","canvas-keyboard-response","125","283825","0.0-11.0-0.57","109","2022-3-25","15:49:28","1","19","[""White""]","No","Female","1107775","","","","","","","","212","57","140","25","25","0",""
"null","null","clear_screen","canvas-keyboard-response","126","284083","0.0-11.0-1.57","109","2022-3-25","15:49:28","1","19","[""White""]","No","Female","1107775","","","","","","","","212","57","140","25","25","",""
"4131","4","rating","canvas-keyboard-response","127","288223","0.0-11.0-0.58","109","2022-3-25","15:49:28","1","19","[""White""]","No","Female","1107775","","","","","","","","285","113","140","33","40","0",""
"null","null","clear_screen","canvas-keyboard-response","128","288480","0.0-11.0-1.58","109","2022-3-25","15:49:28","1","19","[""White""]","No","Female","1107775","","","","","","","","285","113","140","33","40","",""
"2486","2","rating","canvas-keyboard-response","129","290977","0.0-11.0-0.59","109","2022-3-25","15:49:28","1","19","[""White""]","No","Female","1107775","","","","","","","","69","85","140","10","40","0",""
"null","null","clear_screen","canvas-keyboard-response","130","291239","0.0-11.0-1.59","109","2022-3-25","15:49:28","1","19","[""White""]","No","Female","1107775","","","","","","","","69","85","140","10","40","",""
"2173","4","rating","canvas-keyboard-response","131","293424","0.0-11.0-0.60","109","2022-3-25","15:49:28","1","19","[""White""]","No","Female","1107775","","","","","","","","78","113","85","10","25","0",""
"null","null","clear_screen","canvas-keyboard-response","132","293685","0.0-11.0-1.60","109","2022-3-25","15:49:28","1","19","[""White""]","No","Female","1107775","","","","","","","","78","113","85","10","25","",""
"1535","4","rating","canvas-keyboard-response","133","295233","0.0-11.0-0.61","109","2022-3-25","15:49:28","1","19","[""White""]","No","Female","1107775","","","","","","","","162","85","85","17","40","0",""
"null","null","clear_screen","canvas-keyboard-response","134","295494","0.0-11.0-1.61","109","2022-3-25","15:49:28","1","19","[""White""]","No","Female","1107775","","","","","","","","162","85","85","17","40","",""
"3439","4","rating","canvas-keyboard-response","135","298944","0.0-11.0-0.62","109","2022-3-25","15:49:28","1","19","[""White""]","No","Female","1107775","","","","","","","","216","57","113","25","33","0",""
"null","null","clear_screen","canvas-keyboard-response","136","299204","0.0-11.0-1.62","109","2022-3-25","15:49:28","1","19","[""White""]","No","Female","1107775","","","","","","","","216","57","113","25","33","",""
"2097","2","rating","canvas-keyboard-response","137","301313","0.0-11.0-0.63","109","2022-3-25","15:49:28","1","19","[""White""]","No","Female","1107775","","","","","","","","50","85","30","10","17","1",""
"null","null","clear_screen","canvas-keyboard-response","138","301574","0.0-11.0-1.63","109","2022-3-25","15:49:28","1","19","[""White""]","No","Female","1107775","","","","","","","","50","85","30","10","17","",""
"1847","9","rating","canvas-keyboard-response","139","303433","0.0-11.0-0.64","109","2022-3-25","15:49:28","1","19","[""White""]","No","Female","1107775","","","","","","","","5","30","30","10","17","0",""
"null","null","clear_screen","canvas-keyboard-response","140","303692","0.0-11.0-1.64","109","2022-3-25","15:49:28","1","19","[""White""]","No","Female","1107775","","","","","","","","5","30","30","10","17","",""
"2090","5","rating","canvas-keyboard-response","141","305793","0.0-11.0-0.65","109","2022-3-25","15:49:28","1","19","[""White""]","No","Female","1107775","","","","","","","","220","57","85","25","40","0",""
"null","null","clear_screen","canvas-keyboard-response","142","306051","0.0-11.0-1.65","109","2022-3-25","15:49:28","1","19","[""White""]","No","Female","1107775","","","","","","","","220","57","85","25","40","",""
"2855","3","rating","canvas-keyboard-response","143","308920","0.0-11.0-0.66","109","2022-3-25","15:49:28","1","19","[""White""]","No","Female","1107775","","","","","","","","253","140","85","25","40","1",""
"null","null","clear_screen","canvas-keyboard-response","144","309180","0.0-11.0-1.66","109","2022-3-25","15:49:28","1","19","[""White""]","No","Female","1107775","","","","","","","","253","140","85","25","40","",""
"2522","8","rating","canvas-keyboard-response","145","311713","0.0-11.0-0.67","109","2022-3-25","15:49:28","1","19","[""White""]","No","Female","1107775","","","","","","","","277","85","85","33","40","0",""
"null","null","clear_screen","canvas-keyboard-response","146","311972","0.0-11.0-1.67","109","2022-3-25","15:49:28","1","19","[""White""]","No","Female","1107775","","","","","","","","277","85","85","33","40","",""
"4162","3","rating","canvas-keyboard-response","147","316144","0.0-11.0-0.68","109","2022-3-25","15:49:28","1","19","[""White""]","No","Female","1107775","","","","","","","","138","57","30","17","33","0",""
"null","null","clear_screen","canvas-keyboard-response","148","316402","0.0-11.0-1.68","109","2022-3-25","15:49:28","1","19","[""White""]","No","Female","1107775","","","","","","","","138","57","30","17","33","",""
"8056","3","rating","canvas-keyboard-response","149","324473","0.0-11.0-0.69","109","2022-3-25","15:49:28","1","19","[""White""]","No","Female","1107775","","","","","","","","125","30","30","17","40","1",""
"null","null","clear_screen","canvas-keyboard-response","150","324736","0.0-11.0-1.69","109","2022-3-25","15:49:28","1","19","[""White""]","No","Female","1107775","","","","","","","","125","30","30","17","40","",""
"4466","3","rating","canvas-keyboard-response","151","329217","0.0-11.0-0.70","109","2022-3-25","15:49:28","1","19","[""White""]","No","Female","1107775","","","","","","","","20","30","30","10","40","1",""
"null","null","clear_screen","canvas-keyboard-response","152","329478","0.0-11.0-1.70","109","2022-3-25","15:49:28","1","19","[""White""]","No","Female","1107775","","","","","","","","20","30","30","10","40","",""
"3473","3","rating","canvas-keyboard-response","153","332961","0.0-11.0-0.71","109","2022-3-25","15:49:28","1","19","[""White""]","No","Female","1107775","","","","","","","","258","30","113","33","33","1",""
"null","null","clear_screen","canvas-keyboard-response","154","333223","0.0-11.0-1.71","109","2022-3-25","15:49:28","1","19","[""White""]","No","Female","1107775","","","","","","","","258","30","113","33","33","",""
"3467","3","rating","canvas-keyboard-response","155","336705","0.0-11.0-0.72","109","2022-3-25","15:49:28","1","19","[""White""]","No","Female","1107775","","","","","","","","266","57","113","33","33","1",""
"null","null","clear_screen","canvas-keyboard-response","156","336965","0.0-11.0-1.72","109","2022-3-25","15:49:28","1","19","[""White""]","No","Female","1107775","","","","","","","","266","57","113","33","33","",""
"2361","2","rating","canvas-keyboard-response","157","339336","0.0-11.0-0.73","109","2022-3-25","15:49:28","1","19","[""White""]","No","Female","1107775","","","","","","","","234","85","140","25","40","1",""
"null","null","clear_screen","canvas-keyboard-response","158","339597","0.0-11.0-1.73","109","2022-3-25","15:49:28","1","19","[""White""]","No","Female","1107775","","","","","","","","234","85","140","25","40","",""
"1779","2","rating","canvas-keyboard-response","159","341385","0.0-11.0-0.74","109","2022-3-25","15:49:28","1","19","[""White""]","No","Female","1107775","","","","","","","","83","113","85","10","33","1",""
"null","null","clear_screen","canvas-keyboard-response","160","341647","0.0-11.0-1.74","109","2022-3-25","15:49:28","1","19","[""White""]","No","Female","1107775","","","","","","","","83","113","85","10","33","",""
"3709","7","rating","canvas-keyboard-response","161","345368","0.0-11.0-0.75","109","2022-3-25","15:49:28","1","19","[""White""]","No","Female","1107775","","","","","","","","228","85","113","25","33","1",""
"null","null","clear_screen","canvas-keyboard-response","162","345626","0.0-11.0-1.75","109","2022-3-25","15:49:28","1","19","[""White""]","No","Female","1107775","","","","","","","","228","85","113","25","33","",""
"1319","1","rating","canvas-keyboard-response","163","346961","0.0-11.0-0.76","109","2022-3-25","15:49:28","1","19","[""White""]","No","Female","1107775","","","","","","","","23","30","113","10","40","1",""
"null","null","clear_screen","canvas-keyboard-response","164","347220","0.0-11.0-1.76","109","2022-3-25","15:49:28","1","19","[""White""]","No","Female","1107775","","","","","","","","23","30","113","10","40","",""
"1583","1","rating","canvas-keyboard-response","165","348817","0.0-11.0-0.77","109","2022-3-25","15:49:28","1","19","[""White""]","No","Female","1107775","","","","","","","","124","30","140","17","33","0",""
"null","null","clear_screen","canvas-keyboard-response","166","349075","0.0-11.0-1.77","109","2022-3-25","15:49:28","1","19","[""White""]","No","Female","1107775","","","","","","","","124","30","140","17","33","",""
"1824","4","rating","canvas-keyboard-response","167","350912","0.0-11.0-0.78","109","2022-3-25","15:49:28","1","19","[""White""]","No","Female","1107775","","","","","","","","89","113","113","10","40","1",""
"null","null","clear_screen","canvas-keyboard-response","168","351170","0.0-11.0-1.78","109","2022-3-25","15:49:28","1","19","[""White""]","No","Female","1107775","","","","","","","","89","113","113","10","40","",""
"1909","1","rating","canvas-keyboard-response","169","353088","0.0-11.0-0.79","109","2022-3-25","15:49:28","1","19","[""White""]","No","Female","1107775","","","","","","","","106","140","30","10","40","1",""
"null","null","clear_screen","canvas-keyboard-response","170","353348","0.0-11.0-1.79","109","2022-3-25","15:49:28","1","19","[""White""]","No","Female","1107775","","","","","","","","106","140","30","10","40","",""
"1873","6","rating","canvas-keyboard-response","171","355233","0.0-11.0-0.80","109","2022-3-25","15:49:28","1","19","[""White""]","No","Female","1107775","","","","","","","","144","57","57","17","40","1",""
"null","null","clear_screen","canvas-keyboard-response","172","355491","0.0-11.0-1.80","109","2022-3-25","15:49:28","1","19","[""White""]","No","Female","1107775","","","","","","","","144","57","57","17","40","",""
"1779","2","rating","canvas-keyboard-response","173","357280","0.0-11.0-0.81","109","2022-3-25","15:49:28","1","19","[""White""]","No","Female","1107775","","","","","","","","171","113","30","17","33","1",""
"null","null","clear_screen","canvas-keyboard-response","174","357543","0.0-11.0-1.81","109","2022-3-25","15:49:28","1","19","[""White""]","No","Female","1107775","","","","","","","","171","113","30","17","33","",""
"1536","2","rating","canvas-keyboard-response","175","359089","0.0-11.0-0.82","109","2022-3-25","15:49:28","1","19","[""White""]","No","Female","1107775","","","","","","","","286","140","30","33","40","0",""
"null","null","clear_screen","canvas-keyboard-response","176","359347","0.0-11.0-1.82","109","2022-3-25","15:49:28","1","19","[""White""]","No","Female","1107775","","","","","","","","286","140","30","33","40","",""
"2322","8","rating","canvas-keyboard-response","177","361681","0.0-11.0-0.83","109","2022-3-25","15:49:28","1","19","[""White""]","No","Female","1107775","","","","","","","","214","57","57","25","33","1",""
"null","null","clear_screen","canvas-keyboard-response","178","361942","0.0-11.0-1.83","109","2022-3-25","15:49:28","1","19","[""White""]","No","Female","1107775","","","","","","","","214","57","57","25","33","",""
"3160","4","rating","canvas-keyboard-response","179","365113","0.0-11.0-0.84","109","2022-3-25","15:49:28","1","19","[""White""]","No","Female","1107775","","","","","","","","282","113","57","33","40","0",""
"null","null","clear_screen","canvas-keyboard-response","180","365371","0.0-11.0-1.84","109","2022-3-25","15:49:28","1","19","[""White""]","No","Female","1107775","","","","","","","","282","113","57","33","40","",""
"2247","7","rating","canvas-keyboard-response","181","367632","0.0-11.0-0.85","109","2022-3-25","15:49:28","1","19","[""White""]","No","Female","1107775","","","","","","","","74","113","113","10","17","0",""
"null","null","clear_screen","canvas-keyboard-response","182","367890","0.0-11.0-1.85","109","2022-3-25","15:49:28","1","19","[""White""]","No","Female","1107775","","","","","","","","74","113","113","10","17","",""
"8998","4","rating","canvas-keyboard-response","183","376896","0.0-11.0-0.86","109","2022-3-25","15:49:28","1","19","[""White""]","No","Female","1107775","","","","","","","","233","85","113","25","40","1",""
"null","null","clear_screen","canvas-keyboard-response","184","377157","0.0-11.0-1.86","109","2022-3-25","15:49:28","1","19","[""White""]","No","Female","1107775","","","","","","","","233","85","113","25","40","",""
"11632","4","rating","canvas-keyboard-response","185","388802","0.0-11.0-0.87","109","2022-3-25","15:49:28","1","19","[""White""]","No","Female","1107775","","","","","","","","299","85","140","40","40","0",""
"null","null","clear_screen","canvas-keyboard-response","186","389062","0.0-11.0-1.87","109","2022-3-25","15:49:28","1","19","[""White""]","No","Female","1107775","","","","","","","","299","85","140","40","40","",""
"1972","4","rating","canvas-keyboard-response","187","391049","0.0-11.0-0.88","109","2022-3-25","15:49:28","1","19","[""White""]","No","Female","1107775","","","","","","","","156","85","57","17","33","1",""
"null","null","clear_screen","canvas-keyboard-response","188","391307","0.0-11.0-1.88","109","2022-3-25","15:49:28","1","19","[""White""]","No","Female","1107775","","","","","","","","156","85","57","17","33","",""
"5384","7","rating","canvas-keyboard-response","189","396705","0.0-11.0-0.89","109","2022-3-25","15:49:28","1","19","[""White""]","No","Female","1107775","","","","","","","","185","140","140","17","25","1",""
"null","null","clear_screen","canvas-keyboard-response","190","396963","0.0-11.0-1.89","109","2022-3-25","15:49:28","1","19","[""White""]","No","Female","1107775","","","","","","","","185","140","140","17","25","",""
"3411","3","rating","canvas-keyboard-response","191","400385","0.0-11.0-0.90","109","2022-3-25","15:49:28","1","19","[""White""]","No","Female","1107775","","","","","","","","167","113","57","17","25","1",""
"null","null","clear_screen","canvas-keyboard-response","192","400644","0.0-11.0-1.90","109","2022-3-25","15:49:28","1","19","[""White""]","No","Female","1107775","","","","","","","","167","113","57","17","25","",""
"4086","6","rating","canvas-keyboard-response","193","404736","0.0-11.0-0.91","109","2022-3-25","15:49:28","1","19","[""White""]","No","Female","1107775","","","","","","","","261","30","57","33","40","0",""
"null","null","clear_screen","canvas-keyboard-response","194","405000","0.0-11.0-1.91","109","2022-3-25","15:49:28","1","19","[""White""]","No","Female","1107775","","","","","","","","261","30","57","33","40","",""
"1843","7","rating","canvas-keyboard-response","195","406857","0.0-11.0-0.92","109","2022-3-25","15:49:28","1","19","[""White""]","No","Female","1107775","","","","","","","","210","57","85","25","25","1",""
"null","null","clear_screen","canvas-keyboard-response","196","407119","0.0-11.0-1.92","109","2022-3-25","15:49:28","1","19","[""White""]","No","Female","1107775","","","","","","","","210","57","85","25","25","",""
"1147","1","rating","canvas-keyboard-response","197","408280","0.0-11.0-0.93","109","2022-3-25","15:49:28","1","19","[""White""]","No","Female","1107775","","","","","","","","4","30","140","10","10","1",""
"null","null","clear_screen","canvas-keyboard-response","198","408540","0.0-11.0-1.93","109","2022-3-25","15:49:28","1","19","[""White""]","No","Female","1107775","","","","","","","","4","30","140","10","10","",""
"8630","4","rating","canvas-keyboard-response","199","417184","0.0-11.0-0.94","109","2022-3-25","15:49:28","1","19","[""White""]","No","Female","1107775","","","","","","","","274","85","140","33","33","0",""
"null","null","clear_screen","canvas-keyboard-response","200","417444","0.0-11.0-1.94","109","2022-3-25","15:49:28","1","19","[""White""]","No","Female","1107775","","","","","","","","274","85","140","33","33","",""
"1415","1","rating","canvas-keyboard-response","201","418873","0.0-11.0-0.95","109","2022-3-25","15:49:28","1","19","[""White""]","No","Female","1107775","","","","","","","","81","113","30","10","33","1",""
"null","null","clear_screen","canvas-keyboard-response","202","419133","0.0-11.0-1.95","109","2022-3-25","15:49:28","1","19","[""White""]","No","Female","1107775","","","","","","","","81","113","30","10","33","",""
"2713","4","rating","canvas-keyboard-response","203","421857","0.0-11.0-0.96","109","2022-3-25","15:49:28","1","19","[""White""]","No","Female","1107775","","","","","","","","98","140","85","10","25","0",""
"null","null","clear_screen","canvas-keyboard-response","204","422117","0.0-11.0-1.96","109","2022-3-25","15:49:28","1","19","[""White""]","No","Female","1107775","","","","","","","","98","140","85","10","25","",""
"1738","1","rating","canvas-keyboard-response","205","423865","0.0-11.0-0.97","109","2022-3-25","15:49:28","1","19","[""White""]","No","Female","1107775","","","","","","","","123","30","113","17","33","1",""
"null","null","clear_screen","canvas-keyboard-response","206","424124","0.0-11.0-1.97","109","2022-3-25","15:49:28","1","19","[""White""]","No","Female","1107775","","","","","","","","123","30","113","17","33","",""
"2287","1","rating","canvas-keyboard-response","207","426425","0.0-11.0-0.98","109","2022-3-25","15:49:28","1","19","[""White""]","No","Female","1107775","","","","","","","","42","57","140","10","33","0",""
"null","null","clear_screen","canvas-keyboard-response","208","426685","0.0-11.0-1.98","109","2022-3-25","15:49:28","1","19","[""White""]","No","Female","1107775","","","","","","","","42","57","140","10","33","",""
"2840","2","rating","canvas-keyboard-response","209","429537","0.0-11.0-0.99","109","2022-3-25","15:49:28","1","19","[""White""]","No","Female","1107775","","","","","","","","108","140","85","10","40","0",""
"null","null","clear_screen","canvas-keyboard-response","210","429795","0.0-11.0-1.99","109","2022-3-25","15:49:28","1","19","[""White""]","No","Female","1107775","","","","","","","","108","140","85","10","40","",""
"1909","9","rating","canvas-keyboard-response","211","431713","0.0-11.0-0.100","109","2022-3-25","15:49:28","1","19","[""White""]","No","Female","1107775","","","","","","","","120","30","30","17","33","1",""
"null","null","clear_screen","canvas-keyboard-response","212","431972","0.0-11.0-1.100","109","2022-3-25","15:49:28","1","19","[""White""]","No","Female","1107775","","","","","","","","120","30","30","17","33","",""
"2816","4","rating","canvas-keyboard-response","213","434801","0.0-11.0-0.101","109","2022-3-25","15:49:28","1","19","[""White""]","No","Female","1107775","","","","","","","","263","30","113","33","40","0",""
"null","null","clear_screen","canvas-keyboard-response","214","435063","0.0-11.0-1.101","109","2022-3-25","15:49:28","1","19","[""White""]","No","Female","1107775","","","","","","","","263","30","113","33","40","",""
"4085","4","rating","canvas-keyboard-response","215","439160","0.0-11.0-0.102","109","2022-3-25","15:49:28","1","19","[""White""]","No","Female","1107775","","","","","","","","293","30","113","40","40","0",""
"null","null","clear_screen","canvas-keyboard-response","216","439423","0.0-11.0-1.102","109","2022-3-25","15:49:28","1","19","[""White""]","No","Female","1107775","","","","","","","","293","30","113","40","40","",""
"2158","1","rating","canvas-keyboard-response","217","441593","0.0-11.0-0.103","109","2022-3-25","15:49:28","1","19","[""White""]","No","Female","1107775","","","","","","","","97","140","57","10","25","1",""
"null","null","clear_screen","canvas-keyboard-response","218","441852","0.0-11.0-1.103","109","2022-3-25","15:49:28","1","19","[""White""]","No","Female","1107775","","","","","","","","97","140","57","10","25","",""
"1809","6","rating","canvas-keyboard-response","219","443673","0.0-11.0-0.104","109","2022-3-25","15:49:28","1","19","[""White""]","No","Female","1107775","","","","","","","","30","57","85","10","17","0",""
"null","null","clear_screen","canvas-keyboard-response","220","443935","0.0-11.0-1.104","109","2022-3-25","15:49:28","1","19","[""White""]","No","Female","1107775","","","","","","","","30","57","85","10","17","",""
"2385","8","rating","canvas-keyboard-response","221","446329","0.0-11.0-0.105","109","2022-3-25","15:49:28","1","19","[""White""]","No","Female","1107775","","","","","","","","200","30","30","25","33","1",""
"null","null","clear_screen","canvas-keyboard-response","222","446587","0.0-11.0-1.105","109","2022-3-25","15:49:28","1","19","[""White""]","No","Female","1107775","","","","","","","","200","30","30","25","33","",""
"5771","4","rating","canvas-keyboard-response","223","452369","0.0-11.0-0.106","109","2022-3-25","15:49:28","1","19","[""White""]","No","Female","1107775","","","","","","","","73","113","85","10","17","1",""
"null","null","clear_screen","canvas-keyboard-response","224","452627","0.0-11.0-1.106","109","2022-3-25","15:49:28","1","19","[""White""]","No","Female","1107775","","","","","","","","73","113","85","10","17","",""
"3760","5","rating","canvas-keyboard-response","225","456401","0.0-11.0-0.107","109","2022-3-25","15:49:28","1","19","[""White""]","No","Female","1107775","","","","","","","","140","57","85","17","33","1",""
"null","null","clear_screen","canvas-keyboard-response","226","456659","0.0-11.0-1.107","109","2022-3-25","15:49:28","1","19","[""White""]","No","Female","1107775","","","","","","","","140","57","85","17","33","",""
"1412","1","rating","canvas-keyboard-response","227","458082","0.0-11.0-0.108","109","2022-3-25","15:49:28","1","19","[""White""]","No","Female","1107775","","","","","","","","24","30","140","10","40","0",""
"null","null","clear_screen","canvas-keyboard-response","228","458340","0.0-11.0-1.108","109","2022-3-25","15:49:28","1","19","[""White""]","No","Female","1107775","","","","","","","","24","30","140","10","40","",""
"4817","3","rating","canvas-keyboard-response","229","463170","0.0-11.0-0.109","109","2022-3-25","15:49:28","1","19","[""White""]","No","Female","1107775","","","","","","","","225","85","30","25","33","1",""
"null","null","clear_screen","canvas-keyboard-response","230","463430","0.0-11.0-1.109","109","2022-3-25","15:49:28","1","19","[""White""]","No","Female","1107775","","","","","","","","225","85","30","25","33","",""
"1589","1","rating","canvas-keyboard-response","231","465033","0.0-11.0-0.110","109","2022-3-25","15:49:28","1","19","[""White""]","No","Female","1107775","","","","","","","","246","140","30","25","33","0",""
"null","null","clear_screen","canvas-keyboard-response","232","465292","0.0-11.0-1.110","109","2022-3-25","15:49:28","1","19","[""White""]","No","Female","1107775","","","","","","","","246","140","30","25","33","",""
"2528","4","rating","canvas-keyboard-response","233","467833","0.0-11.0-0.111","109","2022-3-25","15:49:28","1","19","[""White""]","No","Female","1107775","","","","","","","","183","140","85","17","25","0",""
"null","null","clear_screen","canvas-keyboard-response","234","468093","0.0-11.0-1.111","109","2022-3-25","15:49:28","1","19","[""White""]","No","Female","1107775","","","","","","","","183","140","85","17","25","",""
"2178","3","rating","canvas-keyboard-response","235","470281","0.0-11.0-0.112","109","2022-3-25","15:49:28","1","19","[""White""]","No","Female","1107775","","","","","","","","218","57","30","25","40","0",""
"null","null","clear_screen","canvas-keyboard-response","236","470540","0.0-11.0-1.112","109","2022-3-25","15:49:28","1","19","[""White""]","No","Female","1107775","","","","","","","","218","57","30","25","40","",""
"1578","8","rating","canvas-keyboard-response","237","472129","0.0-11.0-0.113","109","2022-3-25","15:49:28","1","19","[""White""]","No","Female","1107775","","","","","","","","269","57","57","33","40","0",""
"null","null","clear_screen","canvas-keyboard-response","238","472388","0.0-11.0-1.113","109","2022-3-25","15:49:28","1","19","[""White""]","No","Female","1107775","","","","","","","","269","57","57","33","40","",""
"8658","2","rating","canvas-keyboard-response","239","481057","0.0-11.0-0.114","109","2022-3-25","15:49:28","1","19","[""White""]","No","Female","1107775","","","","","","","","109","140","113","10","40","1",""
"null","null","clear_screen","canvas-keyboard-response","240","481316","0.0-11.0-1.114","109","2022-3-25","15:49:28","1","19","[""White""]","No","Female","1107775","","","","","","","","109","140","113","10","40","",""
"2239","1","rating","canvas-keyboard-response","241","483569","0.0-11.0-0.115","109","2022-3-25","15:49:28","1","19","[""White""]","No","Female","1107775","","","","","","","","86","113","30","10","40","0",""
"null","null","clear_screen","canvas-keyboard-response","242","483830","0.0-11.0-1.115","109","2022-3-25","15:49:28","1","19","[""White""]","No","Female","1107775","","","","","","","","86","113","30","10","40","",""
"1044","1","rating","canvas-keyboard-response","243","484888","0.0-11.0-0.116","109","2022-3-25","15:49:28","1","19","[""White""]","No","Female","1107775","","","","","","","","208","30","113","25","40","0",""
"null","null","clear_screen","canvas-keyboard-response","244","485148","0.0-11.0-1.116","109","2022-3-25","15:49:28","1","19","[""White""]","No","Female","1107775","","","","","","","","208","30","113","25","40","",""
"899","1","rating","canvas-keyboard-response","245","486057","0.0-11.0-0.117","109","2022-3-25","15:49:28","1","19","[""White""]","No","Female","1107775","","","","","","","","114","30","140","17","17","1",""
"null","null","clear_screen","canvas-keyboard-response","246","486316","0.0-11.0-1.117","109","2022-3-25","15:49:28","1","19","[""White""]","No","Female","1107775","","","","","","","","114","30","140","17","17","",""
"1691","1","rating","canvas-keyboard-response","247","488016","0.0-11.0-0.118","109","2022-3-25","15:49:28","1","19","[""White""]","No","Female","1107775","","","","","","","","209","30","140","25","40","0",""
"null","null","clear_screen","canvas-keyboard-response","248","488277","0.0-11.0-1.118","109","2022-3-25","15:49:28","1","19","[""White""]","No","Female","1107775","","","","","","","","209","30","140","25","40","",""
"3352","4","rating","canvas-keyboard-response","249","491641","0.0-11.0-0.119","109","2022-3-25","15:49:28","1","19","[""White""]","No","Female","1107775","","","","","","","","126","30","57","17","40","0",""
"null","null","clear_screen","canvas-keyboard-response","250","491899","0.0-11.0-1.119","109","2022-3-25","15:49:28","1","19","[""White""]","No","Female","1107775","","","","","","","","126","30","57","17","40","",""
"3911","2","rating","canvas-keyboard-response","251","495824","0.0-11.0-0.120","109","2022-3-25","15:49:28","1","19","[""White""]","No","Female","1107775","","","","","","","","193","140","85","17","40","0",""
"null","null","clear_screen","canvas-keyboard-response","252","496082","0.0-11.0-1.120","109","2022-3-25","15:49:28","1","19","[""White""]","No","Female","1107775","","","","","","","","193","140","85","17","40","",""
"6293","3","rating","canvas-keyboard-response","253","502385","0.0-11.0-0.121","109","2022-3-25","15:49:28","1","19","[""White""]","No","Female","1107775","","","","","","","","295","57","85","40","40","1",""
"null","null","clear_screen","canvas-keyboard-response","254","502646","0.0-11.0-1.121","109","2022-3-25","15:49:28","1","19","[""White""]","No","Female","1107775","","","","","","","","295","57","85","40","40","",""
"3168","3","rating","canvas-keyboard-response","255","505824","0.0-11.0-0.122","109","2022-3-25","15:49:28","1","19","[""White""]","No","Female","1107775","","","","","","","","211","57","113","25","25","1",""
"null","null","clear_screen","canvas-keyboard-response","256","506084","0.0-11.0-1.122","109","2022-3-25","15:49:28","1","19","[""White""]","No","Female","1107775","","","","","","","","211","57","113","25","25","",""
"5707","6","rating","canvas-keyboard-response","257","511802","0.0-11.0-0.123","109","2022-3-25","15:49:28","1","19","[""White""]","No","Female","1107775","","","","","","","","265","57","85","33","33","0",""
"null","null","clear_screen","canvas-keyboard-response","258","512058","0.0-11.0-1.123","109","2022-3-25","15:49:28","1","19","[""White""]","No","Female","1107775","","","","","","","","265","57","85","33","33","",""
"3992","2","rating","canvas-keyboard-response","259","516065","0.0-11.0-0.124","109","2022-3-25","15:49:28","1","19","[""White""]","No","Female","1107775","","","","","","","","27","57","140","10","10","1",""
"null","null","clear_screen","canvas-keyboard-response","260","516323","0.0-11.0-1.124","109","2022-3-25","15:49:28","1","19","[""White""]","No","Female","1107775","","","","","","","","27","57","140","10","10","",""
"3732","2","rating","canvas-keyboard-response","261","520064","0.0-11.0-0.125","109","2022-3-25","15:49:28","1","19","[""White""]","No","Female","1107775","","","","","","","","154","85","140","17","25","0",""
"null","null","clear_screen","canvas-keyboard-response","262","520323","0.0-11.0-1.125","109","2022-3-25","15:49:28","1","19","[""White""]","No","Female","1107775","","","","","","","","154","85","140","17","25","",""
"3144","2","rating","canvas-keyboard-response","263","523480","0.0-11.0-0.126","109","2022-3-25","15:49:28","1","19","[""White""]","No","Female","1107775","","","","","","","","21","30","57","10","40","1",""
"null","null","clear_screen","canvas-keyboard-response","264","523742","0.0-11.0-1.126","109","2022-3-25","15:49:28","1","19","[""White""]","No","Female","1107775","","","","","","","","21","30","57","10","40","",""
"3590","7","rating","canvas-keyboard-response","265","527344","0.0-11.0-0.127","109","2022-3-25","15:49:28","1","19","[""White""]","No","Female","1107775","","","","","","","","290","140","140","33","40","1",""
"null","null","clear_screen","canvas-keyboard-response","266","527602","0.0-11.0-1.127","109","2022-3-25","15:49:28","1","19","[""White""]","No","Female","1107775","","","","","","","","290","140","140","33","40","",""
"1866","1","rating","canvas-keyboard-response","267","529474","0.0-11.0-0.128","109","2022-3-25","15:49:28","1","19","[""White""]","No","Female","1107775","","","","","","","","128","30","113","17","40","1",""
"null","null","clear_screen","canvas-keyboard-response","268","529735","0.0-11.0-1.128","109","2022-3-25","15:49:28","1","19","[""White""]","No","Female","1107775","","","","","","","","128","30","113","17","40","",""
"5052","2","rating","canvas-keyboard-response","269","534801","0.0-11.0-0.129","109","2022-3-25","15:49:28","1","19","[""White""]","No","Female","1107775","","","","","","","","272","57","140","33","40","0",""
"null","null","clear_screen","canvas-keyboard-response","270","535062","0.0-11.0-1.129","109","2022-3-25","15:49:28","1","19","[""White""]","No","Female","1107775","","","","","","","","272","57","140","33","40","",""
"2777","1","rating","canvas-keyboard-response","271","537849","0.0-11.0-0.130","109","2022-3-25","15:49:28","1","19","[""White""]","No","Female","1107775","","","","","","","","37","57","140","10","25","1",""
"null","null","clear_screen","canvas-keyboard-response","272","538106","0.0-11.0-1.130","109","2022-3-25","15:49:28","1","19","[""White""]","No","Female","1107775","","","","","","","","37","57","140","10","25","",""
"1762","7","rating","canvas-keyboard-response","273","539881","0.0-11.0-0.131","109","2022-3-25","15:49:28","1","19","[""White""]","No","Female","1107775","","","","","","","","205","30","30","25","40","0",""
"null","null","clear_screen","canvas-keyboard-response","274","540142","0.0-11.0-1.131","109","2022-3-25","15:49:28","1","19","[""White""]","No","Female","1107775","","","","","","","","205","30","30","25","40","",""
"2783","2","rating","canvas-keyboard-response","275","542937","0.0-11.0-0.132","109","2022-3-25","15:49:28","1","19","[""White""]","No","Female","1107775","","","","","","","","141","57","113","17","33","0",""
"null","null","clear_screen","canvas-keyboard-response","276","543199","0.0-11.0-1.132","109","2022-3-25","15:49:28","1","19","[""White""]","No","Female","1107775","","","","","","","","141","57","113","17","33","",""
"3107","8","rating","canvas-keyboard-response","277","546321","0.0-11.0-0.133","109","2022-3-25","15:49:28","1","19","[""White""]","No","Female","1107775","","","","","","","","95","140","140","10","17","0",""
"null","null","clear_screen","canvas-keyboard-response","278","546579","0.0-11.0-1.133","109","2022-3-25","15:49:28","1","19","[""White""]","No","Female","1107775","","","","","","","","95","140","140","10","17","",""
"3666","5","rating","canvas-keyboard-response","279","550257","0.0-11.0-0.134","109","2022-3-25","15:49:28","1","19","[""White""]","No","Female","1107775","","","","","","","","161","85","57","17","40","0",""
"null","null","clear_screen","canvas-keyboard-response","280","550516","0.0-11.0-1.134","109","2022-3-25","15:49:28","1","19","[""White""]","No","Female","1107775","","","","","","","","161","85","57","17","40","",""
"1329","1","rating","canvas-keyboard-response","281","551856","0.0-11.0-0.135","109","2022-3-25","15:49:28","1","19","[""White""]","No","Female","1107775","","","","","","","","181","140","30","17","25","1",""
"null","null","clear_screen","canvas-keyboard-response","282","552114","0.0-11.0-1.135","109","2022-3-25","15:49:28","1","19","[""White""]","No","Female","1107775","","","","","","","","181","140","30","17","25","",""
"3132","2","rating","canvas-keyboard-response","283","555257","0.0-11.0-0.136","109","2022-3-25","15:49:28","1","19","[""White""]","No","Female","1107775","","","","","","","","251","140","30","25","40","1",""
"null","null","clear_screen","canvas-keyboard-response","284","555518","0.0-11.0-1.136","109","2022-3-25","15:49:28","1","19","[""White""]","No","Female","1107775","","","","","","","","251","140","30","25","40","",""
"2575","2","rating","canvas-keyboard-response","285","558105","0.0-11.0-0.137","109","2022-3-25","15:49:28","1","19","[""White""]","No","Female","1107775","","","","","","","","82","113","57","10","33","1",""
"null","null","clear_screen","canvas-keyboard-response","286","558362","0.0-11.0-1.137","109","2022-3-25","15:49:28","1","19","[""White""]","No","Female","1107775","","","","","","","","82","113","57","10","33","",""
"1602","1","rating","canvas-keyboard-response","287","559978","0.0-11.0-0.138","109","2022-3-25","15:49:28","1","19","[""White""]","No","Female","1107775","","","","","","","","8","30","113","10","17","0",""
"null","null","clear_screen","canvas-keyboard-response","288","560237","0.0-11.0-1.138","109","2022-3-25","15:49:28","1","19","[""White""]","No","Female","1107775","","","","","","","","8","30","113","10","17","",""
"3655","2","rating","canvas-keyboard-response","289","563905","0.0-11.0-0.139","109","2022-3-25","15:49:28","1","19","[""White""]","No","Female","1107775","","","","","","","","236","113","30","25","33","1",""
"null","null","clear_screen","canvas-keyboard-response","290","564164","0.0-11.0-1.139","109","2022-3-25","15:49:28","1","19","[""White""]","No","Female","1107775","","","","","","","","236","113","30","25","33","",""
"1870","2","rating","canvas-keyboard-response","291","566048","0.0-11.0-0.140","109","2022-3-25","15:49:28","1","19","[""White""]","No","Female","1107775","","","","","","","","172","113","57","17","33","1",""
"null","null","clear_screen","canvas-keyboard-response","292","566310","0.0-11.0-1.140","109","2022-3-25","15:49:28","1","19","[""White""]","No","Female","1107775","","","","","","","","172","113","57","17","33","",""
"1408","2","rating","canvas-keyboard-response","293","567729","0.0-11.0-0.141","109","2022-3-25","15:49:28","1","19","[""White""]","No","Female","1107775","","","","","","","","217","57","140","25","33","0",""
"null","null","clear_screen","canvas-keyboard-response","294","567988","0.0-11.0-1.141","109","2022-3-25","15:49:28","1","19","[""White""]","No","Female","1107775","","","","","","","","217","57","140","25","33","",""
"2755","2","rating","canvas-keyboard-response","295","570753","0.0-11.0-0.142","109","2022-3-25","15:49:28","1","19","[""White""]","No","Female","1107775","","","","","","","","60","85","30","10","33","0",""
"null","null","clear_screen","canvas-keyboard-response","296","571011","0.0-11.0-1.142","109","2022-3-25","15:49:28","1","19","[""White""]","No","Female","1107775","","","","","","","","60","85","30","10","33","",""
"2209","6","rating","canvas-keyboard-response","297","573233","0.0-11.0-0.143","109","2022-3-25","15:49:28","1","19","[""White""]","No","Female","1107775","","","","","","","","189","140","113","17","33","1",""
"null","null","clear_screen","canvas-keyboard-response","298","573492","0.0-11.0-1.143","109","2022-3-25","15:49:28","1","19","[""White""]","No","Female","1107775","","","","","","","","189","140","113","17","33","",""
"1179","1","rating","canvas-keyboard-response","299","574681","0.0-11.0-0.144","109","2022-3-25","15:49:28","1","19","[""White""]","No","Female","1107775","","","","","","","","3","30","113","10","10","0",""
"null","null","clear_screen","canvas-keyboard-response","300","574940","0.0-11.0-1.144","109","2022-3-25","15:49:28","1","19","[""White""]","No","Female","1107775","","","","","","","","3","30","113","10","10","",""
"1788","4","rating","canvas-keyboard-response","301","576736","0.0-11.0-0.145","109","2022-3-25","15:49:28","1","19","[""White""]","No","Female","1107775","","","","","","","","178","113","85","17","40","1",""
"null","null","clear_screen","canvas-keyboard-response","302","576996","0.0-11.0-1.145","109","2022-3-25","15:49:28","1","19","[""White""]","No","Female","1107775","","","","","","","","178","113","85","17","40","",""
"2770","7","rating","canvas-keyboard-response","303","579776","0.0-11.0-0.146","109","2022-3-25","15:49:28","1","19","[""White""]","No","Female","1107775","","","","","","","","49","85","140","10","10","1",""
"null","null","clear_screen","canvas-keyboard-response","304","580037","0.0-11.0-1.146","109","2022-3-25","15:49:28","1","19","[""White""]","No","Female","1107775","","","","","","","","49","85","140","10","10","",""
"2006","8","rating","canvas-keyboard-response","305","582057","0.0-11.0-0.147","109","2022-3-25","15:49:28","1","19","[""White""]","No","Female","1107775","","","","","","","","70","113","140","10","10","0",""
"null","null","clear_screen","canvas-keyboard-response","306","582316","0.0-11.0-1.147","109","2022-3-25","15:49:28","1","19","[""White""]","No","Female","1107775","","","","","","","","70","113","140","10","10","",""
"2585","8","rating","canvas-keyboard-response","307","584912","0.0-11.0-0.148","109","2022-3-25","15:49:28","1","19","[""White""]","No","Female","1107775","","","","","","","","139","57","57","17","33","0",""
"null","null","clear_screen","canvas-keyboard-response","308","585170","0.0-11.0-1.148","109","2022-3-25","15:49:28","1","19","[""White""]","No","Female","1107775","","","","","","","","139","57","57","17","33","",""
"1765","5","rating","canvas-keyboard-response","309","586944","0.0-11.0-0.149","109","2022-3-25","15:49:28","1","19","[""White""]","No","Female","1107775","","","","","","","","136","57","113","17","25","0",""
"null","null","clear_screen","canvas-keyboard-response","310","587205","0.0-11.0-1.149","109","2022-3-25","15:49:28","1","19","[""White""]","No","Female","1107775","","","","","","","","136","57","113","17","25","",""
"2578","4","rating","canvas-keyboard-response","311","589792","0.0-11.0-0.150","109","2022-3-25","15:49:28","1","19","[""White""]","No","Female","1107775","","","","","","","","207","30","85","25","40","1",""
"null","null","clear_screen","canvas-keyboard-response","312","590051","0.0-11.0-1.150","109","2022-3-25","15:49:28","1","19","[""White""]","No","Female","1107775","","","","","","","","207","30","85","25","40","",""
"1615","7","rating","canvas-keyboard-response","313","591680","0.0-11.0-0.151","109","2022-3-25","15:49:28","1","19","[""White""]","No","Female","1107775","","","","","","","","289","140","113","33","40","1",""
"null","null","clear_screen","canvas-keyboard-response","314","591938","0.0-11.0-1.151","109","2022-3-25","15:49:28","1","19","[""White""]","No","Female","1107775","","","","","","","","289","140","113","33","40","",""
"7085","3","rating","canvas-keyboard-response","315","599034","0.0-11.0-0.152","109","2022-3-25","15:49:28","1","19","[""White""]","No","Female","1107775","","","","","","","","243","113","85","25","40","1",""
"null","null","clear_screen","canvas-keyboard-response","316","599296","0.0-11.0-1.152","109","2022-3-25","15:49:28","1","19","[""White""]","No","Female","1107775","","","","","","","","243","113","85","25","40","",""
"1178","1","rating","canvas-keyboard-response","317","600489","0.0-11.0-0.153","109","2022-3-25","15:49:28","1","19","[""White""]","No","Female","1107775","","","","","","","","19","30","140","10","33","0",""
"null","null","clear_screen","canvas-keyboard-response","318","600748","0.0-11.0-1.153","109","2022-3-25","15:49:28","1","19","[""White""]","No","Female","1107775","","","","","","","","19","30","140","10","33","",""
"3370","2","rating","canvas-keyboard-response","319","604129","0.0-11.0-0.154","109","2022-3-25","15:49:28","1","19","[""White""]","No","Female","1107775","","","","","","","","202","30","85","25","33","1",""
"null","null","clear_screen","canvas-keyboard-response","320","604392","0.0-11.0-1.154","109","2022-3-25","15:49:28","1","19","[""White""]","No","Female","1107775","","","","","","","","202","30","85","25","33","",""
"2117","6","rating","canvas-keyboard-response","321","606521","0.0-11.0-0.155","109","2022-3-25","15:49:28","1","19","[""White""]","No","Female","1107775","","","","","","","","179","113","113","17","40","1",""
"null","null","clear_screen","canvas-keyboard-response","322","606783","0.0-11.0-1.155","109","2022-3-25","15:49:28","1","19","[""White""]","No","Female","1107775","","","","","","","","179","113","113","17","40","",""
"3206","6","rating","canvas-keyboard-response","323","610001","0.0-11.0-0.156","109","2022-3-25","15:49:28","1","19","[""White""]","No","Female","1107775","","","","","","","","268","57","30","33","40","0",""
"null","null","clear_screen","canvas-keyboard-response","324","610262","0.0-11.0-1.156","109","2022-3-25","15:49:28","1","19","[""White""]","No","Female","1107775","","","","","","","","268","57","30","33","40","",""
"4761","4","rating","canvas-keyboard-response","325","615041","0.0-11.0-0.157","109","2022-3-25","15:49:28","1","19","[""White""]","No","Female","1107775","","","","","","","","177","113","57","17","40","0",""
"null","null","clear_screen","canvas-keyboard-response","326","615300","0.0-11.0-1.157","109","2022-3-25","15:49:28","1","19","[""White""]","No","Female","1107775","","","","","","","","177","113","57","17","40","",""
"1549","8","rating","canvas-keyboard-response","327","616864","0.0-11.0-0.158","109","2022-3-25","15:49:28","1","19","[""White""]","No","Female","1107775","","","","","","","","75","113","140","10","17","0",""
"null","null","clear_screen","canvas-keyboard-response","328","617123","0.0-11.0-1.158","109","2022-3-25","15:49:28","1","19","[""White""]","No","Female","1107775","","","","","","","","75","113","140","10","17","",""
"9612","3","rating","canvas-keyboard-response","329","626744","0.0-11.0-0.159","109","2022-3-25","15:49:28","1","19","[""White""]","No","Female","1107775","","","","","","","","90","113","140","10","40","0",""
"null","null","clear_screen","canvas-keyboard-response","330","627003","0.0-11.0-1.159","109","2022-3-25","15:49:28","1","19","[""White""]","No","Female","1107775","","","","","","","","90","113","140","10","40","",""
"3567","6","rating","canvas-keyboard-response","331","630585","0.0-11.0-0.160","109","2022-3-25","15:49:28","1","19","[""White""]","No","Female","1107775","","","","","","","","79","113","113","10","25","1",""
"null","null","clear_screen","canvas-keyboard-response","332","630842","0.0-11.0-1.160","109","2022-3-25","15:49:28","1","19","[""White""]","No","Female","1107775","","","","","","","","79","113","113","10","25","",""
"1468","2","rating","canvas-keyboard-response","333","632321","0.0-11.0-0.161","109","2022-3-25","15:49:28","1","19","[""White""]","No","Female","1107775","","","","","","","","87","113","57","10","40","0",""
"null","null","clear_screen","canvas-keyboard-response","334","632579","0.0-11.0-1.161","109","2022-3-25","15:49:28","1","19","[""White""]","No","Female","1107775","","","","","","","","87","113","57","10","40","",""
"2655","2","rating","canvas-keyboard-response","335","635250","0.0-11.0-0.162","109","2022-3-25","15:49:28","1","19","[""White""]","No","Female","1107775","","","","","","","","40","57","85","10","33","1",""
"null","null","clear_screen","canvas-keyboard-response","336","635512","0.0-11.0-1.162","109","2022-3-25","15:49:28","1","19","[""White""]","No","Female","1107775","","","","","","","","40","57","85","10","33","",""
"1778","2","rating","canvas-keyboard-response","337","637305","0.0-11.0-0.163","109","2022-3-25","15:49:28","1","19","[""White""]","No","Female","1107775","","","","","","","","107","140","57","10","40","1",""
"null","null","clear_screen","canvas-keyboard-response","338","637563","0.0-11.0-1.163","109","2022-3-25","15:49:28","1","19","[""White""]","No","Female","1107775","","","","","","","","107","140","57","10","40","",""
"3478","2","rating","canvas-keyboard-response","339","641057","0.0-11.0-0.164","109","2022-3-25","15:49:28","1","19","[""White""]","No","Female","1107775","","","","","","","","105","140","140","10","33","0",""
"null","null","clear_screen","canvas-keyboard-response","340","641318","0.0-11.0-1.164","109","2022-3-25","15:49:28","1","19","[""White""]","No","Female","1107775","","","","","","","","105","140","140","10","33","",""
"2077","2","rating","canvas-keyboard-response","341","643409","0.0-11.0-0.165","109","2022-3-25","15:49:28","1","19","[""White""]","No","Female","1107775","","","","","","","","119","30","140","17","25","0",""
"null","null","clear_screen","canvas-keyboard-response","342","643669","0.0-11.0-1.165","109","2022-3-25","15:49:28","1","19","[""White""]","No","Female","1107775","","","","","","","","119","30","140","17","25","",""
"2748","2","rating","canvas-keyboard-response","343","646433","0.0-11.0-0.166","109","2022-3-25","15:49:28","1","19","[""White""]","No","Female","1107775","","","","","","","","240","113","140","25","33","1",""
"null","null","clear_screen","canvas-keyboard-response","344","646692","0.0-11.0-1.166","109","2022-3-25","15:49:28","1","19","[""White""]","No","Female","1107775","","","","","","","","240","113","140","25","33","",""
"3845","5","rating","canvas-keyboard-response","345","650552","0.0-11.0-0.167","109","2022-3-25","15:49:28","1","19","[""White""]","No","Female","1107775","","","","","","","","67","85","85","10","40","1",""
"null","null","clear_screen","canvas-keyboard-response","346","650813","0.0-11.0-1.167","109","2022-3-25","15:49:28","1","19","[""White""]","No","Female","1107775","","","","","","","","67","85","85","10","40","",""
"2502","2","rating","canvas-keyboard-response","347","653328","0.0-11.0-0.168","109","2022-3-25","15:49:28","1","19","[""White""]","No","Female","1107775","","","","","","","","18","30","113","10","33","0",""
"null","null","clear_screen","canvas-keyboard-response","348","653586","0.0-11.0-1.168","109","2022-3-25","15:49:28","1","19","[""White""]","No","Female","1107775","","","","","","","","18","30","113","10","33","",""
"1400","2","rating","canvas-keyboard-response","349","655000","0.0-11.0-0.169","109","2022-3-25","15:49:28","1","19","[""White""]","No","Female","1107775","","","","","","","","103","140","85","10","33","1",""
"null","null","clear_screen","canvas-keyboard-response","350","655262","0.0-11.0-1.169","109","2022-3-25","15:49:28","1","19","[""White""]","No","Female","1107775","","","","","","","","103","140","85","10","33","",""
"1942","7","rating","canvas-keyboard-response","351","657216","0.0-11.0-0.170","109","2022-3-25","15:49:28","1","19","[""White""]","No","Female","1107775","","","","","","","","206","30","57","25","40","0",""
"null","null","clear_screen","canvas-keyboard-response","352","657475","0.0-11.0-1.170","109","2022-3-25","15:49:28","1","19","[""White""]","No","Female","1107775","","","","","","","","206","30","57","25","40","",""
"1127","1","rating","canvas-keyboard-response","353","658616","0.0-11.0-0.171","109","2022-3-25","15:49:28","1","19","[""White""]","No","Female","1107775","","","","","","","","142","57","140","17","33","1",""
"null","null","clear_screen","canvas-keyboard-response","354","658876","0.0-11.0-1.171","109","2022-3-25","15:49:28","1","19","[""White""]","No","Female","1107775","","","","","","","","142","57","140","17","33","",""
"2224","3","rating","canvas-keyboard-response","355","661113","0.0-11.0-0.172","109","2022-3-25","15:49:28","1","19","[""White""]","No","Female","1107775","","","","","","","","33","57","30","10","25","1",""
"null","null","clear_screen","canvas-keyboard-response","356","661377","0.0-11.0-1.172","109","2022-3-25","15:49:28","1","19","[""White""]","No","Female","1107775","","","","","","","","33","57","30","10","25","",""
"3115","5","rating","canvas-keyboard-response","357","664505","0.0-11.0-0.173","109","2022-3-25","15:49:28","1","19","[""White""]","No","Female","1107775","","","","","","","","267","57","140","33","33","0",""
"null","null","clear_screen","canvas-keyboard-response","358","664764","0.0-11.0-1.173","109","2022-3-25","15:49:28","1","19","[""White""]","No","Female","1107775","","","","","","","","267","57","140","33","33","",""
"3551","2","rating","canvas-keyboard-response","359","668329","0.0-11.0-0.174","109","2022-3-25","15:49:28","1","19","[""White""]","No","Female","1107775","","","","","","","","71","113","30","10","17","1",""
"null","null","clear_screen","canvas-keyboard-response","360","668587","0.0-11.0-1.174","109","2022-3-25","15:49:28","1","19","[""White""]","No","Female","1107775","","","","","","","","71","113","30","10","17","",""
"3806","6","rating","canvas-keyboard-response","361","672409","0.0-11.0-0.175","109","2022-3-25","15:49:28","1","19","[""White""]","No","Female","1107775","","","","","","","","215","57","85","25","33","1",""
"null","null","clear_screen","canvas-keyboard-response","362","672667","0.0-11.0-1.175","109","2022-3-25","15:49:28","1","19","[""White""]","No","Female","1107775","","","","","","","","215","57","85","25","33","",""
"3977","6","rating","canvas-keyboard-response","363","676657","0.0-11.0-0.176","109","2022-3-25","15:49:28","1","19","[""White""]","No","Female","1107775","","","","","","","","273","85","113","33","33","0",""
"null","null","clear_screen","canvas-keyboard-response","364","676915","0.0-11.0-1.176","109","2022-3-25","15:49:28","1","19","[""White""]","No","Female","1107775","","","","","","","","273","85","113","33","33","",""
"3419","4","rating","canvas-keyboard-response","365","680346","0.0-11.0-0.177","109","2022-3-25","15:49:28","1","19","[""White""]","No","Female","1107775","","","","","","","","259","30","140","33","33","0",""
"null","null","clear_screen","canvas-keyboard-response","366","680608","0.0-11.0-1.177","109","2022-3-25","15:49:28","1","19","[""White""]","No","Female","1107775","","","","","","","","259","30","140","33","33","",""
"1668","7","rating","canvas-keyboard-response","367","682288","0.0-11.0-0.178","109","2022-3-25","15:49:28","1","19","[""White""]","No","Female","1107775","","","","","","","","52","85","85","10","17","1",""
"null","null","clear_screen","canvas-keyboard-response","368","682546","0.0-11.0-1.178","109","2022-3-25","15:49:28","1","19","[""White""]","No","Female","1107775","","","","","","","","52","85","85","10","17","",""
"1617","7","rating","canvas-keyboard-response","369","684176","0.0-11.0-0.179","109","2022-3-25","15:49:28","1","19","[""White""]","No","Female","1107775","","","","","","","","100","140","140","10","25","0",""
"null","null","clear_screen","canvas-keyboard-response","370","684436","0.0-11.0-1.179","109","2022-3-25","15:49:28","1","19","[""White""]","No","Female","1107775","","","","","","","","100","140","140","10","25","",""
"2383","2","rating","canvas-keyboard-response","371","686833","0.0-11.0-0.180","109","2022-3-25","15:49:28","1","19","[""White""]","No","Female","1107775","","","","","","","","176","113","30","17","40","0",""
"null","null","clear_screen","canvas-keyboard-response","372","687093","0.0-11.0-1.180","109","2022-3-25","15:49:28","1","19","[""White""]","No","Female","1107775","","","","","","","","176","113","30","17","40","",""
"9289","6","rating","canvas-keyboard-response","373","696392","0.0-11.0-0.181","109","2022-3-25","15:49:28","1","19","[""White""]","No","Female","1107775","","","","","","","","35","57","85","10","25","0",""
"null","null","clear_screen","canvas-keyboard-response","374","696650","0.0-11.0-1.181","109","2022-3-25","15:49:28","1","19","[""White""]","No","Female","1107775","","","","","","","","35","57","85","10","25","",""
"1541","6","rating","canvas-keyboard-response","375","698203","0.0-11.0-0.182","109","2022-3-25","15:49:28","1","19","[""White""]","No","Female","1107775","","","","","","","","232","85","85","25","40","1",""
"null","null","clear_screen","canvas-keyboard-response","376","698464","0.0-11.0-1.182","109","2022-3-25","15:49:28","1","19","[""White""]","No","Female","1107775","","","","","","","","232","85","85","25","40","",""
"2140","4","rating","canvas-keyboard-response","377","700616","0.0-11.0-0.183","109","2022-3-25","15:49:28","1","19","[""White""]","No","Female","1107775","","","","","","","","288","140","85","33","40","0",""
"null","null","clear_screen","canvas-keyboard-response","378","700879","0.0-11.0-1.183","109","2022-3-25","15:49:28","1","19","[""White""]","No","Female","1107775","","","","","","","","288","140","85","33","40","",""
"3803","9","rating","canvas-keyboard-response","379","704696","0.0-11.0-0.184","109","2022-3-25","15:49:28","1","19","[""White""]","No","Female","1107775","","","","","","","","115","30","30","17","25","0",""
"null","null","clear_screen","canvas-keyboard-response","380","704957","0.0-11.0-1.184","109","2022-3-25","15:49:28","1","19","[""White""]","No","Female","1107775","","","","","","","","115","30","30","17","25","",""
"2399","3","rating","canvas-keyboard-response","381","707368","0.0-11.0-0.185","109","2022-3-25","15:49:28","1","19","[""White""]","No","Female","1107775","","","","","","","","187","140","57","17","33","0",""
"null","null","clear_screen","canvas-keyboard-response","382","707627","0.0-11.0-1.185","109","2022-3-25","15:49:28","1","19","[""White""]","No","Female","1107775","","","","","","","","187","140","57","17","33","",""
"1803","3","rating","canvas-keyboard-response","383","709441","0.0-11.0-0.186","109","2022-3-25","15:49:28","1","19","[""White""]","No","Female","1107775","","","","","","","","163","85","113","17","40","0",""
"null","null","clear_screen","canvas-keyboard-response","384","709700","0.0-11.0-1.186","109","2022-3-25","15:49:28","1","19","[""White""]","No","Female","1107775","","","","","","","","163","85","113","17","40","",""
"4885","8","rating","canvas-keyboard-response","385","714600","0.0-11.0-0.187","109","2022-3-25","15:49:28","1","19","[""White""]","No","Female","1107775","","","","","","","","235","113","140","25","25","0",""
"null","null","clear_screen","canvas-keyboard-response","386","714861","0.0-11.0-1.187","109","2022-3-25","15:49:28","1","19","[""White""]","No","Female","1107775","","","","","","","","235","113","140","25","25","",""
"2722","3","rating","canvas-keyboard-response","387","717592","0.0-11.0-0.188","109","2022-3-25","15:49:28","1","19","[""White""]","No","Female","1107775","","","","","","","","118","30","113","17","25","1",""
"null","null","clear_screen","canvas-keyboard-response","388","717851","0.0-11.0-1.188","109","2022-3-25","15:49:28","1","19","[""White""]","No","Female","1107775","","","","","","","","118","30","113","17","25","",""
"1169","3","rating","canvas-keyboard-response","389","719032","0.0-11.0-0.189","109","2022-3-25","15:49:28","1","19","[""White""]","No","Female","1107775","","","","","","","","237","113","57","25","33","0",""
"null","null","clear_screen","canvas-keyboard-response","390","719290","0.0-11.0-1.189","109","2022-3-25","15:49:28","1","19","[""White""]","No","Female","1107775","","","","","","","","237","113","57","25","33","",""
"1915","7","rating","canvas-keyboard-response","391","721217","0.0-11.0-0.190","109","2022-3-25","15:49:28","1","19","[""White""]","No","Female","1107775","","","","","","","","190","140","140","17","33","1",""
"null","null","clear_screen","canvas-keyboard-response","392","721474","0.0-11.0-1.190","109","2022-3-25","15:49:28","1","19","[""White""]","No","Female","1107775","","","","","","","","190","140","140","17","33","",""
"3666","2","rating","canvas-keyboard-response","393","725152","0.0-11.0-0.191","109","2022-3-25","15:49:28","1","19","[""White""]","No","Female","1107775","","","","","","","","137","57","140","17","25","0",""
"null","null","clear_screen","canvas-keyboard-response","394","725411","0.0-11.0-1.191","109","2022-3-25","15:49:28","1","19","[""White""]","No","Female","1107775","","","","","","","","137","57","140","17","25","",""
"2346","2","rating","canvas-keyboard-response","395","727768","0.0-11.0-0.192","109","2022-3-25","15:49:28","1","19","[""White""]","No","Female","1107775","","","","","","","","192","140","57","17","40","0",""
"null","null","clear_screen","canvas-keyboard-response","396","728030","0.0-11.0-1.192","109","2022-3-25","15:49:28","1","19","[""White""]","No","Female","1107775","","","","","","","","192","140","57","17","40","",""
"5489","3","rating","canvas-keyboard-response","397","733530","0.0-11.0-0.193","109","2022-3-25","15:49:28","1","19","[""White""]","No","Female","1107775","","","","","","","","271","57","113","33","40","0",""
"null","null","clear_screen","canvas-keyboard-response","398","733793","0.0-11.0-1.193","109","2022-3-25","15:49:28","1","19","[""White""]","No","Female","1107775","","","","","","","","271","57","113","33","40","",""
"2449","1","rating","canvas-keyboard-response","399","736256","0.0-11.0-0.194","109","2022-3-25","15:49:28","1","19","[""White""]","No","Female","1107775","","","","","","","","101","140","30","10","33","0",""
"null","null","clear_screen","canvas-keyboard-response","400","736520","0.0-11.0-1.194","109","2022-3-25","15:49:28","1","19","[""White""]","No","Female","1107775","","","","","","","","101","140","30","10","33","",""
"1726","7","rating","canvas-keyboard-response","401","738258","0.0-11.0-0.195","109","2022-3-25","15:49:28","1","19","[""White""]","No","Female","1107775","","","","","","","","291","30","57","40","40","1",""
"null","null","clear_screen","canvas-keyboard-response","402","738519","0.0-11.0-1.195","109","2022-3-25","15:49:28","1","19","[""White""]","No","Female","1107775","","","","","","","","291","30","57","40","40","",""
"9077","5","rating","canvas-keyboard-response","403","747609","0.0-11.0-0.196","109","2022-3-25","15:49:28","1","19","[""White""]","No","Female","1107775","","","","","","","","149","85","140","17","17","0",""
"null","null","clear_screen","canvas-keyboard-response","404","747870","0.0-11.0-1.196","109","2022-3-25","15:49:28","1","19","[""White""]","No","Female","1107775","","","","","","","","149","85","140","17","17","",""
"1813","6","rating","canvas-keyboard-response","405","749696","0.0-11.0-0.197","109","2022-3-25","15:49:28","1","19","[""White""]","No","Female","1107775","","","","","","","","110","140","140","10","40","0",""
"null","null","clear_screen","canvas-keyboard-response","406","749958","0.0-11.0-1.197","109","2022-3-25","15:49:28","1","19","[""White""]","No","Female","1107775","","","","","","","","110","140","140","10","40","",""
"1608","3","rating","canvas-keyboard-response","407","751576","0.0-11.0-0.198","109","2022-3-25","15:49:28","1","19","[""White""]","No","Female","1107775","","","","","","","","221","57","113","25","40","0",""
"null","null","clear_screen","canvas-keyboard-response","408","751836","0.0-11.0-1.198","109","2022-3-25","15:49:28","1","19","[""White""]","No","Female","1107775","","","","","","","","221","57","113","25","40","",""
"1742","1","rating","canvas-keyboard-response","409","753592","0.0-11.0-0.199","109","2022-3-25","15:49:28","1","19","[""White""]","No","Female","1107775","","","","","","","","204","30","140","25","33","0",""
"null","null","clear_screen","canvas-keyboard-response","410","753855","0.0-11.0-1.199","109","2022-3-25","15:49:28","1","19","[""White""]","No","Female","1107775","","","","","","","","204","30","140","25","33","",""
"2578","7","rating","canvas-keyboard-response","411","756449","0.0-11.0-0.200","109","2022-3-25","15:49:28","1","19","[""White""]","No","Female","1107775","","","","","","","","53","85","113","10","17","1",""
"null","null","clear_screen","canvas-keyboard-response","412","756707","0.0-11.0-1.200","109","2022-3-25","15:49:28","1","19","[""White""]","No","Female","1107775","","","","","","","","53","85","113","10","17","",""
"1171","1","rating","canvas-keyboard-response","413","757888","0.0-11.0-0.201","109","2022-3-25","15:49:28","1","19","[""White""]","No","Female","1107775","","","","","","","","12","30","85","10","25","1",""
"null","null","clear_screen","canvas-keyboard-response","414","758148","0.0-11.0-1.201","109","2022-3-25","15:49:28","1","19","[""White""]","No","Female","1107775","","","","","","","","12","30","85","10","25","",""
"1830","8","rating","canvas-keyboard-response","415","759993","0.0-11.0-0.202","109","2022-3-25","15:49:28","1","19","[""White""]","No","Female","1107775","","","","","","","","157","85","85","17","33","1",""
"null","null","clear_screen","canvas-keyboard-response","416","760252","0.0-11.0-1.202","109","2022-3-25","15:49:28","1","19","[""White""]","No","Female","1107775","","","","","","","","157","85","85","17","33","",""
"1987","9","rating","canvas-keyboard-response","417","762251","0.0-11.0-0.203","109","2022-3-25","15:49:28","1","19","[""White""]","No","Female","1107775","","","","","","","","250","140","140","25","33","0",""
"null","null","clear_screen","canvas-keyboard-response","418","762512","0.0-11.0-1.203","109","2022-3-25","15:49:28","1","19","[""White""]","No","Female","1107775","","","","","","","","250","140","140","25","33","",""
"1723","1","rating","canvas-keyboard-response","419","764250","0.0-11.0-0.204","109","2022-3-25","15:49:28","1","19","[""White""]","No","Female","1107775","","","","","","","","281","113","30","33","40","1",""
"null","null","clear_screen","canvas-keyboard-response","420","764511","0.0-11.0-1.204","109","2022-3-25","15:49:28","1","19","[""White""]","No","Female","1107775","","","","","","","","281","113","30","33","40","",""
"2765","6","rating","canvas-keyboard-response","421","767289","0.0-11.0-0.205","109","2022-3-25","15:49:28","1","19","[""White""]","No","Female","1107775","","","","","","","","300","113","140","40","40","1",""
"null","null","clear_screen","canvas-keyboard-response","422","767549","0.0-11.0-1.205","109","2022-3-25","15:49:28","1","19","[""White""]","No","Female","1107775","","","","","","","","300","113","140","40","40","",""
"1818","1","rating","canvas-keyboard-response","423","769377","0.0-11.0-0.206","109","2022-3-25","15:49:28","1","19","[""White""]","No","Female","1107775","","","","","","","","242","113","57","25","40","1",""
"null","null","clear_screen","canvas-keyboard-response","424","769635","0.0-11.0-1.206","109","2022-3-25","15:49:28","1","19","[""White""]","No","Female","1107775","","","","","","","","242","113","57","25","40","",""
"1978","8","rating","canvas-keyboard-response","425","771624","0.0-11.0-0.207","109","2022-3-25","15:49:28","1","19","[""White""]","No","Female","1107775","","","","","","","","213","57","30","25","33","0",""
"null","null","clear_screen","canvas-keyboard-response","426","771885","0.0-11.0-1.207","109","2022-3-25","15:49:28","1","19","[""White""]","No","Female","1107775","","","","","","","","213","57","30","25","33","",""
"6028","4","rating","canvas-keyboard-response","427","777929","0.0-11.0-0.208","109","2022-3-25","15:49:28","1","19","[""White""]","No","Female","1107775","","","","","","","","88","113","85","10","40","0",""
"null","null","clear_screen","canvas-keyboard-response","428","778189","0.0-11.0-1.208","109","2022-3-25","15:49:28","1","19","[""White""]","No","Female","1107775","","","","","","","","88","113","85","10","40","",""
"2406","8","rating","canvas-keyboard-response","429","780609","0.0-11.0-0.209","109","2022-3-25","15:49:28","1","19","[""White""]","No","Female","1107775","","","","","","","","34","57","57","10","25","1",""
"null","null","clear_screen","canvas-keyboard-response","430","780866","0.0-11.0-1.209","109","2022-3-25","15:49:28","1","19","[""White""]","No","Female","1107775","","","","","","","","34","57","57","10","25","",""
"7707","3","rating","canvas-keyboard-response","431","788585","0.0-11.0-0.210","109","2022-3-25","15:49:28","1","19","[""White""]","No","Female","1107775","","","","","","","","173","113","85","17","33","1",""
"null","null","clear_screen","canvas-keyboard-response","432","788846","0.0-11.0-1.210","109","2022-3-25","15:49:28","1","19","[""White""]","No","Female","1107775","","","","","","","","173","113","85","17","33","",""
"3928","5","rating","canvas-keyboard-response","433","792785","0.0-11.0-0.211","109","2022-3-25","15:49:28","1","19","[""White""]","No","Female","1107775","","","","","","","","99","140","113","10","25","1",""
"null","null","clear_screen","canvas-keyboard-response","434","793042","0.0-11.0-1.211","109","2022-3-25","15:49:28","1","19","[""White""]","No","Female","1107775","","","","","","","","99","140","113","10","25","",""
"2178","3","rating","canvas-keyboard-response","435","795232","0.0-11.0-0.212","109","2022-3-25","15:49:28","1","19","[""White""]","No","Female","1107775","","","","","","","","113","30","113","17","17","0",""
"null","null","clear_screen","canvas-keyboard-response","436","795494","0.0-11.0-1.212","109","2022-3-25","15:49:28","1","19","[""White""]","No","Female","1107775","","","","","","","","113","30","113","17","17","",""
"4677","7","rating","canvas-keyboard-response","437","800186","0.0-11.0-0.213","109","2022-3-25","15:49:28","1","19","[""White""]","No","Female","1107775","","","","","","","","219","57","57","25","40","1",""
"null","null","clear_screen","canvas-keyboard-response","438","800447","0.0-11.0-1.213","109","2022-3-25","15:49:28","1","19","[""White""]","No","Female","1107775","","","","","","","","219","57","57","25","40","",""
"2364","4","rating","canvas-keyboard-response","439","802825","0.0-11.0-0.214","109","2022-3-25","15:49:28","1","19","[""White""]","No","Female","1107775","","","","","","","","11","30","57","10","25","0",""
"null","null","clear_screen","canvas-keyboard-response","440","803083","0.0-11.0-1.214","109","2022-3-25","15:49:28","1","19","[""White""]","No","Female","1107775","","","","","","","","11","30","57","10","25","",""
"3498","4","rating","canvas-keyboard-response","441","806592","0.0-11.0-0.215","109","2022-3-25","15:49:28","1","19","[""White""]","No","Female","1107775","","","","","","","","294","30","140","40","40","1",""
"null","null","clear_screen","canvas-keyboard-response","442","806853","0.0-11.0-1.215","109","2022-3-25","15:49:28","1","19","[""White""]","No","Female","1107775","","","","","","","","294","30","140","40","40","",""
"3270","7","rating","canvas-keyboard-response","443","810137","0.0-11.0-0.216","109","2022-3-25","15:49:28","1","19","[""White""]","No","Female","1107775","","","","","","","","226","85","57","25","33","0",""
"null","null","clear_screen","canvas-keyboard-response","444","810397","0.0-11.0-1.216","109","2022-3-25","15:49:28","1","19","[""White""]","No","Female","1107775","","","","","","","","226","85","57","25","33","",""
"2552","3","rating","canvas-keyboard-response","445","812960","0.0-11.0-0.217","109","2022-3-25","15:49:28","1","19","[""White""]","No","Female","1107775","","","","","","","","155","85","30","17","33","1",""
"null","null","clear_screen","canvas-keyboard-response","446","813221","0.0-11.0-1.217","109","2022-3-25","15:49:28","1","19","[""White""]","No","Female","1107775","","","","","","","","155","85","30","17","33","",""
"5954","2","rating","canvas-keyboard-response","447","819184","0.0-11.0-0.218","109","2022-3-25","15:49:28","1","19","[""White""]","No","Female","1107775","","","","","","","","146","57","113","17","40","0",""
"null","null","clear_screen","canvas-keyboard-response","448","819445","0.0-11.0-1.218","109","2022-3-25","15:49:28","1","19","[""White""]","No","Female","1107775","","","","","","","","146","57","113","17","40","",""
"2662","5","rating","canvas-keyboard-response","449","822121","0.0-11.0-0.219","109","2022-3-25","15:49:28","1","19","[""White""]","No","Female","1107775","","","","","","","","256","30","57","33","33","0",""
"null","null","clear_screen","canvas-keyboard-response","450","822378","0.0-11.0-1.219","109","2022-3-25","15:49:28","1","19","[""White""]","No","Female","1107775","","","","","","","","256","30","57","33","33","",""
"2308","4","rating","canvas-keyboard-response","451","824696","0.0-11.0-0.220","109","2022-3-25","15:49:28","1","19","[""White""]","No","Female","1107775","","","","","","","","132","57","140","17","17","0",""
"null","null","clear_screen","canvas-keyboard-response","452","824956","0.0-11.0-1.220","109","2022-3-25","15:49:28","1","19","[""White""]","No","Female","1107775","","","","","","","","132","57","140","17","17","",""
"6825","3","rating","canvas-keyboard-response","453","831793","0.0-11.0-0.221","109","2022-3-25","15:49:28","1","19","[""White""]","No","Female","1107775","","","","","","","","257","30","85","33","33","0",""
"null","null","clear_screen","canvas-keyboard-response","454","832050","0.0-11.0-1.221","109","2022-3-25","15:49:28","1","19","[""White""]","No","Female","1107775","","","","","","","","257","30","85","33","33","",""
"4034","3","rating","canvas-keyboard-response","455","836096","0.0-11.0-0.222","109","2022-3-25","15:49:28","1","19","[""White""]","No","Female","1107775","","","","","","","","68","85","113","10","40","1",""
"null","null","clear_screen","canvas-keyboard-response","456","836355","0.0-11.0-1.222","109","2022-3-25","15:49:28","1","19","[""White""]","No","Female","1107775","","","","","","","","68","85","113","10","40","",""
"7171","2","rating","canvas-keyboard-response","457","843536","0.0-11.0-0.223","109","2022-3-25","15:49:28","1","19","[""White""]","No","Female","1107775","","","","","","","","145","57","85","17","40","0",""
"null","null","clear_screen","canvas-keyboard-response","458","843800","0.0-11.0-1.223","109","2022-3-25","15:49:28","1","19","[""White""]","No","Female","1107775","","","","","","","","145","57","85","17","40","",""
"2436","2","rating","canvas-keyboard-response","459","846249","0.0-11.0-0.224","109","2022-3-25","15:49:28","1","19","[""White""]","No","Female","1107775","","","","","","","","153","85","113","17","25","1",""
"null","null","clear_screen","canvas-keyboard-response","460","846511","0.0-11.0-1.224","109","2022-3-25","15:49:28","1","19","[""White""]","No","Female","1107775","","","","","","","","153","85","113","17","25","",""
"2646","4","rating","canvas-keyboard-response","461","849168","0.0-11.0-0.225","109","2022-3-25","15:49:28","1","19","[""White""]","No","Female","1107775","","","","","","","","276","85","57","33","40","1",""
"null","null","clear_screen","canvas-keyboard-response","462","849429","0.0-11.0-1.225","109","2022-3-25","15:49:28","1","19","[""White""]","No","Female","1107775","","","","","","","","276","85","57","33","40","",""
"2032","7","rating","canvas-keyboard-response","463","851472","0.0-11.0-0.226","109","2022-3-25","15:49:28","1","19","[""White""]","No","Female","1107775","","","","","","","","111","30","57","17","17","0",""
