"rt","response","trialType","trial_type","trial_index","time_elapsed","internal_node_id","sub_n","date","time","leftRight","age","race","ethnicity","gender","exp_duration","success","timeout","failed_images","failed_audio","failed_video","stimulus","view_history","trialID","radius_a","radius_b","angle_a","angle_b","lrCond","question_order"
"3966","{""response"":""101""}","enter-sub-number","survey-html-form","0","3979","0.0-0.0","101","2022-3-10","15:5:4","1","19","[""White""]","No","Female","812530","","","","","","","","","","","","","",""
"","","","fullscreen","1","16870","0.0-1.0","101","2022-3-10","15:5:4","1","19","[""White""]","No","Female","812530","true","","","","","","","","","","","","",""
"","","","preload","2","16888","0.0-2.0","101","2022-3-10","15:5:4","1","19","[""White""]","No","Female","812530","true","false","[]","[]","[]","","","","","","","","",""
"5645","0","","html-button-response","3","22535","0.0-3.0","101","2022-3-10","15:5:4","1","19","[""White""]","No","Female","812530","","","","","","<div style= ""font-size:25px;"" <p> <strong> Welcome to the experiment! </strong><br> <p style=""color:#8B0000; font-size:25px;""><strong> Please do NOT exit full screen until you are done with the experiment. </strong> </p><p style=""font-size:25px;color:#8B0000;""> <strong> The experiment will be canceled and your data will be lost <br> if you try to go back or refresh the page at any point during the experiment.</strong> </p><br><p> <strong> Thanks in advance for your contribution to our research! </strong></p>","","","","","","","",""
"26980","","","instructions","4","49518","0.0-4.0","101","2022-3-10","15:5:4","1","19","[""White""]","No","Female","812530","","","","","","","[{""page_index"":0,""viewing_time"":12412},{""page_index"":1,""viewing_time"":12863},{""page_index"":2,""viewing_time"":1704}]","","","","","","",""
"null","null","presentPop","canvas-keyboard-response","5","65529","0.0-5.0","101","2022-3-10","15:5:4","1","19","[""White""]","No","Female","812530","","","","","","","","","","","","","",""
"null","null","clear_screen","canvas-keyboard-response","6","66292","0.0-6.0","101","2022-3-10","15:5:4","1","19","[""White""]","No","Female","812530","","","","","","","","","","","","","",""
"3904","","","instructions","7","70198","0.0-7.0","101","2022-3-10","15:5:4","1","19","[""White""]","No","Female","812530","","","","","","","[{""page_index"":0,""viewing_time"":3904}]","","","","","","",""
"null","null","presentPop","canvas-keyboard-response","8","86214","0.0-8.0","101","2022-3-10","15:5:4","1","19","[""White""]","No","Female","812530","","","","","","","","","","","","","",""
"null","null","clear_screen","canvas-keyboard-response","9","86977","0.0-9.0","101","2022-3-10","15:5:4","1","19","[""White""]","No","Female","812530","","","","","","","","","","","","","",""
"8592","","","instructions","10","95573","0.0-10.0","101","2022-3-10","15:5:4","1","19","[""White""]","No","Female","812530","","","","","","","[{""page_index"":0,""viewing_time"":5952},{""page_index"":1,""viewing_time"":2640}]","","","","","","",""
"9983","3","rating","canvas-keyboard-response","11","106574","0.0-11.0-0.0","101","2022-3-10","15:5:4","1","19","[""White""]","No","Female","812530","","","","","","","","160","85","30","17","40","0",""
"null","null","clear_screen","canvas-keyboard-response","12","106836","0.0-11.0-1.0","101","2022-3-10","15:5:4","1","19","[""White""]","No","Female","812530","","","","","","","","160","85","30","17","40","",""
"4775","8","rating","canvas-keyboard-response","13","111622","0.0-11.0-0.1","101","2022-3-10","15:5:4","1","19","[""White""]","No","Female","812530","","","","","","","","196","30","57","25","25","0",""
"null","null","clear_screen","canvas-keyboard-response","14","111884","0.0-11.0-1.1","101","2022-3-10","15:5:4","1","19","[""White""]","No","Female","812530","","","","","","","","196","30","57","25","25","",""
"4767","8","rating","canvas-keyboard-response","15","116662","0.0-11.0-0.2","101","2022-3-10","15:5:4","1","19","[""White""]","No","Female","812530","","","","","","","","232","85","85","25","40","1",""
"null","null","clear_screen","canvas-keyboard-response","16","116919","0.0-11.0-1.2","101","2022-3-10","15:5:4","1","19","[""White""]","No","Female","812530","","","","","","","","232","85","85","25","40","",""
"5296","3","rating","canvas-keyboard-response","17","122230","0.0-11.0-0.3","101","2022-3-10","15:5:4","1","19","[""White""]","No","Female","812530","","","","","","","","176","113","30","17","40","0",""
"null","null","clear_screen","canvas-keyboard-response","18","122489","0.0-11.0-1.3","101","2022-3-10","15:5:4","1","19","[""White""]","No","Female","812530","","","","","","","","176","113","30","17","40","",""
"2529","5","rating","canvas-keyboard-response","19","125029","0.0-11.0-0.4","101","2022-3-10","15:5:4","1","19","[""White""]","No","Female","812530","","","","","","","","154","85","140","17","25","1",""
"null","null","clear_screen","canvas-keyboard-response","20","125289","0.0-11.0-1.4","101","2022-3-10","15:5:4","1","19","[""White""]","No","Female","812530","","","","","","","","154","85","140","17","25","",""
"5301","1","rating","canvas-keyboard-response","21","130606","0.0-11.0-0.5","101","2022-3-10","15:5:4","1","19","[""White""]","No","Female","812530","","","","","","","","251","140","30","25","40","0",""
"null","null","clear_screen","canvas-keyboard-response","22","130868","0.0-11.0-1.5","101","2022-3-10","15:5:4","1","19","[""White""]","No","Female","812530","","","","","","","","251","140","30","25","40","",""
"2550","7","rating","canvas-keyboard-response","23","133429","0.0-11.0-0.6","101","2022-3-10","15:5:4","1","19","[""White""]","No","Female","812530","","","","","","","","238","113","85","25","33","1",""
"null","null","clear_screen","canvas-keyboard-response","24","133689","0.0-11.0-1.6","101","2022-3-10","15:5:4","1","19","[""White""]","No","Female","812530","","","","","","","","238","113","85","25","33","",""
"1662","5","rating","canvas-keyboard-response","25","135365","0.0-11.0-0.7","101","2022-3-10","15:5:4","1","19","[""White""]","No","Female","812530","","","","","","","","46","57","113","10","40","1",""
"null","null","clear_screen","canvas-keyboard-response","26","135625","0.0-11.0-1.7","101","2022-3-10","15:5:4","1","19","[""White""]","No","Female","812530","","","","","","","","46","57","113","10","40","",""
"3610","5","rating","canvas-keyboard-response","27","139246","0.0-11.0-0.8","101","2022-3-10","15:5:4","1","19","[""White""]","No","Female","812530","","","","","","","","272","57","140","33","40","1",""
"null","null","clear_screen","canvas-keyboard-response","28","139505","0.0-11.0-1.8","101","2022-3-10","15:5:4","1","19","[""White""]","No","Female","812530","","","","","","","","272","57","140","33","40","",""
"2920","3","rating","canvas-keyboard-response","29","142437","0.0-11.0-0.9","101","2022-3-10","15:5:4","1","19","[""White""]","No","Female","812530","","","","","","","","66","85","57","10","40","0",""
"null","null","clear_screen","canvas-keyboard-response","30","142695","0.0-11.0-1.9","101","2022-3-10","15:5:4","1","19","[""White""]","No","Female","812530","","","","","","","","66","85","57","10","40","",""
"2321","7","rating","canvas-keyboard-response","31","145030","0.0-11.0-0.10","101","2022-3-10","15:5:4","1","19","[""White""]","No","Female","812530","","","","","","","","151","85","57","17","25","0",""
"null","null","clear_screen","canvas-keyboard-response","32","145292","0.0-11.0-1.10","101","2022-3-10","15:5:4","1","19","[""White""]","No","Female","812530","","","","","","","","151","85","57","17","25","",""
"3237","6","rating","canvas-keyboard-response","33","148542","0.0-11.0-0.11","101","2022-3-10","15:5:4","1","19","[""White""]","No","Female","812530","","","","","","","","68","85","113","10","40","1",""
"null","null","clear_screen","canvas-keyboard-response","34","148805","0.0-11.0-1.11","101","2022-3-10","15:5:4","1","19","[""White""]","No","Female","812530","","","","","","","","68","85","113","10","40","",""
"2051","4","rating","canvas-keyboard-response","35","150869","0.0-11.0-0.12","101","2022-3-10","15:5:4","1","19","[""White""]","No","Female","812530","","","","","","","","208","30","113","25","40","1",""
"null","null","clear_screen","canvas-keyboard-response","36","151127","0.0-11.0-1.12","101","2022-3-10","15:5:4","1","19","[""White""]","No","Female","812530","","","","","","","","208","30","113","25","40","",""
"2867","7","rating","canvas-keyboard-response","37","154004","0.0-11.0-0.13","101","2022-3-10","15:5:4","1","19","[""White""]","No","Female","812530","","","","","","","","130","57","85","17","17","0",""
"null","null","clear_screen","canvas-keyboard-response","38","154261","0.0-11.0-1.13","101","2022-3-10","15:5:4","1","19","[""White""]","No","Female","812530","","","","","","","","130","57","85","17","17","",""
"1786","8","rating","canvas-keyboard-response","39","156061","0.0-11.0-0.14","101","2022-3-10","15:5:4","1","19","[""White""]","No","Female","812530","","","","","","","","85","113","140","10","33","1",""
"null","null","clear_screen","canvas-keyboard-response","40","156323","0.0-11.0-1.14","101","2022-3-10","15:5:4","1","19","[""White""]","No","Female","812530","","","","","","","","85","113","140","10","33","",""
"2230","8","rating","canvas-keyboard-response","41","158565","0.0-11.0-0.15","101","2022-3-10","15:5:4","1","19","[""White""]","No","Female","812530","","","","","","","","249","140","113","25","33","1",""
"null","null","clear_screen","canvas-keyboard-response","42","158823","0.0-11.0-1.15","101","2022-3-10","15:5:4","1","19","[""White""]","No","Female","812530","","","","","","","","249","140","113","25","33","",""
"3860","5","rating","canvas-keyboard-response","43","162693","0.0-11.0-0.16","101","2022-3-10","15:5:4","1","19","[""White""]","No","Female","812530","","","","","","","","207","30","85","25","40","0",""
"null","null","clear_screen","canvas-keyboard-response","44","162951","0.0-11.0-1.16","101","2022-3-10","15:5:4","1","19","[""White""]","No","Female","812530","","","","","","","","207","30","85","25","40","",""
"7736","6","rating","canvas-keyboard-response","45","170701","0.0-11.0-0.17","101","2022-3-10","15:5:4","1","19","[""White""]","No","Female","812530","","","","","","","","12","30","85","10","25","1",""
"null","null","clear_screen","canvas-keyboard-response","46","170963","0.0-11.0-1.17","101","2022-3-10","15:5:4","1","19","[""White""]","No","Female","812530","","","","","","","","12","30","85","10","25","",""
"7256","7","rating","canvas-keyboard-response","47","178229","0.0-11.0-0.18","101","2022-3-10","15:5:4","1","19","[""White""]","No","Female","812530","","","","","","","","179","113","113","17","40","0",""
"null","null","clear_screen","canvas-keyboard-response","48","178488","0.0-11.0-1.18","101","2022-3-10","15:5:4","1","19","[""White""]","No","Female","812530","","","","","","","","179","113","113","17","40","",""
"3335","4","rating","canvas-keyboard-response","49","181838","0.0-11.0-0.19","101","2022-3-10","15:5:4","1","19","[""White""]","No","Female","812530","","","","","","","","103","140","85","10","33","0",""
"null","null","clear_screen","canvas-keyboard-response","50","182100","0.0-11.0-1.19","101","2022-3-10","15:5:4","1","19","[""White""]","No","Female","812530","","","","","","","","103","140","85","10","33","",""
"3901","7","rating","canvas-keyboard-response","51","186013","0.0-11.0-0.20","101","2022-3-10","15:5:4","1","19","[""White""]","No","Female","812530","","","","","","","","300","113","140","40","40","0",""
"null","null","clear_screen","canvas-keyboard-response","52","186272","0.0-11.0-1.20","101","2022-3-10","15:5:4","1","19","[""White""]","No","Female","812530","","","","","","","","300","113","140","40","40","",""
"2665","2","rating","canvas-keyboard-response","53","188949","0.0-11.0-0.21","101","2022-3-10","15:5:4","1","19","[""White""]","No","Female","812530","","","","","","","","145","57","85","17","40","0",""
"null","null","clear_screen","canvas-keyboard-response","54","189209","0.0-11.0-1.21","101","2022-3-10","15:5:4","1","19","[""White""]","No","Female","812530","","","","","","","","145","57","85","17","40","",""
"3206","8","rating","canvas-keyboard-response","55","192429","0.0-11.0-0.22","101","2022-3-10","15:5:4","1","19","[""White""]","No","Female","812530","","","","","","","","3","30","113","10","10","1",""
"null","null","clear_screen","canvas-keyboard-response","56","192689","0.0-11.0-1.22","101","2022-3-10","15:5:4","1","19","[""White""]","No","Female","812530","","","","","","","","3","30","113","10","10","",""
"2672","1","rating","canvas-keyboard-response","57","195374","0.0-11.0-0.23","101","2022-3-10","15:5:4","1","19","[""White""]","No","Female","812530","","","","","","","","287","140","57","33","40","1",""
"null","null","clear_screen","canvas-keyboard-response","58","195632","0.0-11.0-1.23","101","2022-3-10","15:5:4","1","19","[""White""]","No","Female","812530","","","","","","","","287","140","57","33","40","",""
"2491","9","rating","canvas-keyboard-response","59","198134","0.0-11.0-0.24","101","2022-3-10","15:5:4","1","19","[""White""]","No","Female","812530","","","","","","","","290","140","140","33","40","0",""
"null","null","clear_screen","canvas-keyboard-response","60","198393","0.0-11.0-1.24","101","2022-3-10","15:5:4","1","19","[""White""]","No","Female","812530","","","","","","","","290","140","140","33","40","",""
"2216","7","rating","canvas-keyboard-response","61","200621","0.0-11.0-0.25","101","2022-3-10","15:5:4","1","19","[""White""]","No","Female","812530","","","","","","","","202","30","85","25","33","1",""
"null","null","clear_screen","canvas-keyboard-response","62","200880","0.0-11.0-1.25","101","2022-3-10","15:5:4","1","19","[""White""]","No","Female","812530","","","","","","","","202","30","85","25","33","",""
"1642","2","rating","canvas-keyboard-response","63","202533","0.0-11.0-0.26","101","2022-3-10","15:5:4","1","19","[""White""]","No","Female","812530","","","","","","","","234","85","140","25","40","0",""
"null","null","clear_screen","canvas-keyboard-response","64","202795","0.0-11.0-1.26","101","2022-3-10","15:5:4","1","19","[""White""]","No","Female","812530","","","","","","","","234","85","140","25","40","",""
"1808","1","rating","canvas-keyboard-response","65","204614","0.0-11.0-0.27","101","2022-3-10","15:5:4","1","19","[""White""]","No","Female","812530","","","","","","","","14","30","140","10","25","0",""
"null","null","clear_screen","canvas-keyboard-response","66","204872","0.0-11.0-1.27","101","2022-3-10","15:5:4","1","19","[""White""]","No","Female","812530","","","","","","","","14","30","140","10","25","",""
"2627","6","rating","canvas-keyboard-response","67","207509","0.0-11.0-0.28","101","2022-3-10","15:5:4","1","19","[""White""]","No","Female","812530","","","","","","","","161","85","57","17","40","0",""
"null","null","clear_screen","canvas-keyboard-response","68","207768","0.0-11.0-1.28","101","2022-3-10","15:5:4","1","19","[""White""]","No","Female","812530","","","","","","","","161","85","57","17","40","",""
"1992","7","rating","canvas-keyboard-response","69","209773","0.0-11.0-0.29","101","2022-3-10","15:5:4","1","19","[""White""]","No","Female","812530","","","","","","","","240","113","140","25","33","1",""
"null","null","clear_screen","canvas-keyboard-response","70","210033","0.0-11.0-1.29","101","2022-3-10","15:5:4","1","19","[""White""]","No","Female","812530","","","","","","","","240","113","140","25","33","",""
"3455","7","rating","canvas-keyboard-response","71","213501","0.0-11.0-0.30","101","2022-3-10","15:5:4","1","19","[""White""]","No","Female","812530","","","","","","","","135","57","85","17","25","0",""
"null","null","clear_screen","canvas-keyboard-response","72","213765","0.0-11.0-1.30","101","2022-3-10","15:5:4","1","19","[""White""]","No","Female","812530","","","","","","","","135","57","85","17","25","",""
"6733","4","rating","canvas-keyboard-response","73","220509","0.0-11.0-0.31","101","2022-3-10","15:5:4","1","19","[""White""]","No","Female","812530","","","","","","","","180","113","140","17","40","1",""
"null","null","clear_screen","canvas-keyboard-response","74","220770","0.0-11.0-1.31","101","2022-3-10","15:5:4","1","19","[""White""]","No","Female","812530","","","","","","","","180","113","140","17","40","",""
"3317","8","rating","canvas-keyboard-response","75","224101","0.0-11.0-0.32","101","2022-3-10","15:5:4","1","19","[""White""]","No","Female","812530","","","","","","","","111","30","57","17","17","0",""
"null","null","clear_screen","canvas-keyboard-response","76","224364","0.0-11.0-1.32","101","2022-3-10","15:5:4","1","19","[""White""]","No","Female","812530","","","","","","","","111","30","57","17","17","",""
"2149","8","rating","canvas-keyboard-response","77","226525","0.0-11.0-0.33","101","2022-3-10","15:5:4","1","19","[""White""]","No","Female","812530","","","","","","","","285","113","140","33","40","1",""
"null","null","clear_screen","canvas-keyboard-response","78","226786","0.0-11.0-1.33","101","2022-3-10","15:5:4","1","19","[""White""]","No","Female","812530","","","","","","","","285","113","140","33","40","",""
"2028","5","rating","canvas-keyboard-response","79","228829","0.0-11.0-0.34","101","2022-3-10","15:5:4","1","19","[""White""]","No","Female","812530","","","","","","","","80","113","140","10","25","1",""
"null","null","clear_screen","canvas-keyboard-response","80","229092","0.0-11.0-1.34","101","2022-3-10","15:5:4","1","19","[""White""]","No","Female","812530","","","","","","","","80","113","140","10","25","",""
"1886","8","rating","canvas-keyboard-response","81","230989","0.0-11.0-0.35","101","2022-3-10","15:5:4","1","19","[""White""]","No","Female","812530","","","","","","","","75","113","140","10","17","1",""
"null","null","clear_screen","canvas-keyboard-response","82","231248","0.0-11.0-1.35","101","2022-3-10","15:5:4","1","19","[""White""]","No","Female","812530","","","","","","","","75","113","140","10","17","",""
"2954","2","rating","canvas-keyboard-response","83","234213","0.0-11.0-0.36","101","2022-3-10","15:5:4","1","19","[""White""]","No","Female","812530","","","","","","","","186","140","30","17","33","1",""
"null","null","clear_screen","canvas-keyboard-response","84","234474","0.0-11.0-1.36","101","2022-3-10","15:5:4","1","19","[""White""]","No","Female","812530","","","","","","","","186","140","30","17","33","",""
"3583","7","rating","canvas-keyboard-response","85","238069","0.0-11.0-0.37","101","2022-3-10","15:5:4","1","19","[""White""]","No","Female","812530","","","","","","","","263","30","113","33","40","1",""
"null","null","clear_screen","canvas-keyboard-response","86","238328","0.0-11.0-1.37","101","2022-3-10","15:5:4","1","19","[""White""]","No","Female","812530","","","","","","","","263","30","113","33","40","",""
"1643","5","rating","canvas-keyboard-response","87","239982","0.0-11.0-0.38","101","2022-3-10","15:5:4","1","19","[""White""]","No","Female","812530","","","","","","","","138","57","30","17","33","1",""
"null","null","clear_screen","canvas-keyboard-response","88","240241","0.0-11.0-1.38","101","2022-3-10","15:5:4","1","19","[""White""]","No","Female","812530","","","","","","","","138","57","30","17","33","",""
"16152","2","rating","canvas-keyboard-response","89","256406","0.0-11.0-0.39","101","2022-3-10","15:5:4","1","19","[""White""]","No","Female","812530","","","","","","","","143","57","30","17","40","1",""
"null","null","clear_screen","canvas-keyboard-response","90","256669","0.0-11.0-1.39","101","2022-3-10","15:5:4","1","19","[""White""]","No","Female","812530","","","","","","","","143","57","30","17","40","",""
"1733","8","rating","canvas-keyboard-response","91","258413","0.0-11.0-0.40","101","2022-3-10","15:5:4","1","19","[""White""]","No","Female","812530","","","","","","","","255","140","140","25","40","0",""
"null","null","clear_screen","canvas-keyboard-response","92","258672","0.0-11.0-1.40","101","2022-3-10","15:5:4","1","19","[""White""]","No","Female","812530","","","","","","","","255","140","140","25","40","",""
"1454","1","rating","canvas-keyboard-response","93","260142","0.0-11.0-0.41","101","2022-3-10","15:5:4","1","19","[""White""]","No","Female","812530","","","","","","","","199","30","140","25","25","0",""
"null","null","clear_screen","canvas-keyboard-response","94","260401","0.0-11.0-1.41","101","2022-3-10","15:5:4","1","19","[""White""]","No","Female","812530","","","","","","","","199","30","140","25","25","",""
"1886","6","rating","canvas-keyboard-response","95","262301","0.0-11.0-0.42","101","2022-3-10","15:5:4","1","19","[""White""]","No","Female","812530","","","","","","","","261","30","57","33","40","1",""
"null","null","clear_screen","canvas-keyboard-response","96","262560","0.0-11.0-1.42","101","2022-3-10","15:5:4","1","19","[""White""]","No","Female","812530","","","","","","","","261","30","57","33","40","",""
"1986","2","rating","canvas-keyboard-response","97","264558","0.0-11.0-0.43","101","2022-3-10","15:5:4","1","19","[""White""]","No","Female","812530","","","","","","","","30","57","85","10","17","1",""
"null","null","clear_screen","canvas-keyboard-response","98","264819","0.0-11.0-1.43","101","2022-3-10","15:5:4","1","19","[""White""]","No","Female","812530","","","","","","","","30","57","85","10","17","",""
"5819","7","rating","canvas-keyboard-response","99","270653","0.0-11.0-0.44","101","2022-3-10","15:5:4","1","19","[""White""]","No","Female","812530","","","","","","","","253","140","85","25","40","1",""
"null","null","clear_screen","canvas-keyboard-response","100","270912","0.0-11.0-1.44","101","2022-3-10","15:5:4","1","19","[""White""]","No","Female","812530","","","","","","","","253","140","85","25","40","",""
"11272","5","rating","canvas-keyboard-response","101","282197","0.0-11.0-0.45","101","2022-3-10","15:5:4","1","19","[""White""]","No","Female","812530","","","","","","","","77","113","57","10","25","0",""
"null","null","clear_screen","canvas-keyboard-response","102","282456","0.0-11.0-1.45","101","2022-3-10","15:5:4","1","19","[""White""]","No","Female","812530","","","","","","","","77","113","57","10","25","",""
"2698","8","rating","canvas-keyboard-response","103","285165","0.0-11.0-0.46","101","2022-3-10","15:5:4","1","19","[""White""]","No","Female","812530","","","","","","","","210","57","85","25","25","0",""
"null","null","clear_screen","canvas-keyboard-response","104","285425","0.0-11.0-1.46","101","2022-3-10","15:5:4","1","19","[""White""]","No","Female","812530","","","","","","","","210","57","85","25","25","",""
"2399","8","rating","canvas-keyboard-response","105","287837","0.0-11.0-0.47","101","2022-3-10","15:5:4","1","19","[""White""]","No","Female","812530","","","","","","","","229","85","140","25","33","0",""
"null","null","clear_screen","canvas-keyboard-response","106","288097","0.0-11.0-1.47","101","2022-3-10","15:5:4","1","19","[""White""]","No","Female","812530","","","","","","","","229","85","140","25","33","",""
"1482","8","rating","canvas-keyboard-response","107","289589","0.0-11.0-0.48","101","2022-3-10","15:5:4","1","19","[""White""]","No","Female","812530","","","","","","","","195","140","140","17","40","0",""
"null","null","clear_screen","canvas-keyboard-response","108","289851","0.0-11.0-1.48","101","2022-3-10","15:5:4","1","19","[""White""]","No","Female","812530","","","","","","","","195","140","140","17","40","",""
"2111","7","rating","canvas-keyboard-response","109","291973","0.0-11.0-0.49","101","2022-3-10","15:5:4","1","19","[""White""]","No","Female","812530","","","","","","","","273","85","113","33","33","0",""
"null","null","clear_screen","canvas-keyboard-response","110","292234","0.0-11.0-1.49","101","2022-3-10","15:5:4","1","19","[""White""]","No","Female","812530","","","","","","","","273","85","113","33","33","",""
"2416","9","rating","canvas-keyboard-response","111","294661","0.0-11.0-0.50","101","2022-3-10","15:5:4","1","19","[""White""]","No","Female","812530","","","","","","","","74","113","113","10","17","0",""
"null","null","clear_screen","canvas-keyboard-response","112","294921","0.0-11.0-1.50","101","2022-3-10","15:5:4","1","19","[""White""]","No","Female","812530","","","","","","","","74","113","113","10","17","",""
"1817","8","rating","canvas-keyboard-response","113","296750","0.0-11.0-0.51","101","2022-3-10","15:5:4","1","19","[""White""]","No","Female","812530","","","","","","","","235","113","140","25","25","0",""
"null","null","clear_screen","canvas-keyboard-response","114","297010","0.0-11.0-1.51","101","2022-3-10","15:5:4","1","19","[""White""]","No","Female","812530","","","","","","","","235","113","140","25","25","",""
"1433","7","rating","canvas-keyboard-response","115","298453","0.0-11.0-0.52","101","2022-3-10","15:5:4","1","19","[""White""]","No","Female","812530","","","","","","","","105","140","140","10","33","0",""
"null","null","clear_screen","canvas-keyboard-response","116","298715","0.0-11.0-1.52","101","2022-3-10","15:5:4","1","19","[""White""]","No","Female","812530","","","","","","","","105","140","140","10","33","",""
"3254","5","rating","canvas-keyboard-response","117","301981","0.0-11.0-0.53","101","2022-3-10","15:5:4","1","19","[""White""]","No","Female","812530","","","","","","","","212","57","140","25","25","0",""
"null","null","clear_screen","canvas-keyboard-response","118","302240","0.0-11.0-1.53","101","2022-3-10","15:5:4","1","19","[""White""]","No","Female","812530","","","","","","","","212","57","140","25","25","",""
"2138","6","rating","canvas-keyboard-response","119","304389","0.0-11.0-0.54","101","2022-3-10","15:5:4","1","19","[""White""]","No","Female","812530","","","","","","","","60","85","30","10","33","1",""
"null","null","clear_screen","canvas-keyboard-response","120","304648","0.0-11.0-1.54","101","2022-3-10","15:5:4","1","19","[""White""]","No","Female","812530","","","","","","","","60","85","30","10","33","",""
"2974","3","rating","canvas-keyboard-response","121","307637","0.0-11.0-0.55","101","2022-3-10","15:5:4","1","19","[""White""]","No","Female","812530","","","","","","","","242","113","57","25","40","0",""
"null","null","clear_screen","canvas-keyboard-response","122","307895","0.0-11.0-1.55","101","2022-3-10","15:5:4","1","19","[""White""]","No","Female","812530","","","","","","","","242","113","57","25","40","",""
"1402","2","rating","canvas-keyboard-response","123","309309","0.0-11.0-0.56","101","2022-3-10","15:5:4","1","19","[""White""]","No","Female","812530","","","","","","","","13","30","113","10","25","1",""
"null","null","clear_screen","canvas-keyboard-response","124","309567","0.0-11.0-1.56","101","2022-3-10","15:5:4","1","19","[""White""]","No","Female","812530","","","","","","","","13","30","113","10","25","",""
"1540","8","rating","canvas-keyboard-response","125","311118","0.0-11.0-0.57","101","2022-3-10","15:5:4","1","19","[""White""]","No","Female","812530","","","","","","","","244","113","113","25","40","0",""
"null","null","clear_screen","canvas-keyboard-response","126","311378","0.0-11.0-1.57","101","2022-3-10","15:5:4","1","19","[""White""]","No","Female","812530","","","","","","","","244","113","113","25","40","",""
"1423","2","rating","canvas-keyboard-response","127","312813","0.0-11.0-0.58","101","2022-3-10","15:5:4","1","19","[""White""]","No","Female","812530","","","","","","","","123","30","113","17","33","1",""
"null","null","clear_screen","canvas-keyboard-response","128","313072","0.0-11.0-1.58","101","2022-3-10","15:5:4","1","19","[""White""]","No","Female","812530","","","","","","","","123","30","113","17","33","",""
"1834","4","rating","canvas-keyboard-response","129","314917","0.0-11.0-0.59","101","2022-3-10","15:5:4","1","19","[""White""]","No","Female","812530","","","","","","","","146","57","113","17","40","0",""
"null","null","clear_screen","canvas-keyboard-response","130","315175","0.0-11.0-1.59","101","2022-3-10","15:5:4","1","19","[""White""]","No","Female","812530","","","","","","","","146","57","113","17","40","",""
"2604","6","rating","canvas-keyboard-response","131","317790","0.0-11.0-0.60","101","2022-3-10","15:5:4","1","19","[""White""]","No","Female","812530","","","","","","","","223","85","113","25","25","1",""
"null","null","clear_screen","canvas-keyboard-response","132","318049","0.0-11.0-1.60","101","2022-3-10","15:5:4","1","19","[""White""]","No","Female","812530","","","","","","","","223","85","113","25","25","",""
"2529","4","rating","canvas-keyboard-response","133","320589","0.0-11.0-0.61","101","2022-3-10","15:5:4","1","19","[""White""]","No","Female","812530","","","","","","","","281","113","30","33","40","1",""
"null","null","clear_screen","canvas-keyboard-response","134","320848","0.0-11.0-1.61","101","2022-3-10","15:5:4","1","19","[""White""]","No","Female","812530","","","","","","","","281","113","30","33","40","",""
"1415","2","rating","canvas-keyboard-response","135","322277","0.0-11.0-0.62","101","2022-3-10","15:5:4","1","19","[""White""]","No","Female","812530","","","","","","","","101","140","30","10","33","1",""
"null","null","clear_screen","canvas-keyboard-response","136","322537","0.0-11.0-1.62","101","2022-3-10","15:5:4","1","19","[""White""]","No","Female","812530","","","","","","","","101","140","30","10","33","",""
"2179","5","rating","canvas-keyboard-response","137","324727","0.0-11.0-0.63","101","2022-3-10","15:5:4","1","19","[""White""]","No","Female","812530","","","","","","","","175","113","140","17","33","0",""
"null","null","clear_screen","canvas-keyboard-response","138","324987","0.0-11.0-1.63","101","2022-3-10","15:5:4","1","19","[""White""]","No","Female","812530","","","","","","","","175","113","140","17","33","",""
"2751","3","rating","canvas-keyboard-response","139","327749","0.0-11.0-0.64","101","2022-3-10","15:5:4","1","19","[""White""]","No","Female","812530","","","","","","","","177","113","57","17","40","0",""
"null","null","clear_screen","canvas-keyboard-response","140","328010","0.0-11.0-1.64","101","2022-3-10","15:5:4","1","19","[""White""]","No","Female","812530","","","","","","","","177","113","57","17","40","",""
"4315","4","rating","canvas-keyboard-response","141","332342","0.0-11.0-0.65","101","2022-3-10","15:5:4","1","19","[""White""]","No","Female","812530","","","","","","","","275","85","30","33","40","1",""
"null","null","clear_screen","canvas-keyboard-response","142","332603","0.0-11.0-1.65","101","2022-3-10","15:5:4","1","19","[""White""]","No","Female","812530","","","","","","","","275","85","30","33","40","",""
"1615","3","rating","canvas-keyboard-response","143","334230","0.0-11.0-0.66","101","2022-3-10","15:5:4","1","19","[""White""]","No","Female","812530","","","","","","","","76","113","30","10","25","0",""
"null","null","clear_screen","canvas-keyboard-response","144","334488","0.0-11.0-1.66","101","2022-3-10","15:5:4","1","19","[""White""]","No","Female","812530","","","","","","","","76","113","30","10","25","",""
"2216","5","rating","canvas-keyboard-response","145","336718","0.0-11.0-0.67","101","2022-3-10","15:5:4","1","19","[""White""]","No","Female","812530","","","","","","","","140","57","85","17","33","1",""
"null","null","clear_screen","canvas-keyboard-response","146","336979","0.0-11.0-1.67","101","2022-3-10","15:5:4","1","19","[""White""]","No","Female","812530","","","","","","","","140","57","85","17","33","",""
"1248","1","rating","canvas-keyboard-response","147","338238","0.0-11.0-0.68","101","2022-3-10","15:5:4","1","19","[""White""]","No","Female","812530","","","","","","","","71","113","30","10","17","0",""
"null","null","clear_screen","canvas-keyboard-response","148","338496","0.0-11.0-1.68","101","2022-3-10","15:5:4","1","19","[""White""]","No","Female","812530","","","","","","","","71","113","30","10","17","",""
"4634","4","rating","canvas-keyboard-response","149","343141","0.0-11.0-0.69","101","2022-3-10","15:5:4","1","19","[""White""]","No","Female","812530","","","","","","","","47","57","140","10","40","1",""
"1","7","clear_screen","canvas-keyboard-response","150","343153","0.0-11.0-1.69","101","2022-3-10","15:5:4","1","19","[""White""]","No","Female","812530","","","","","","","","47","57","140","10","40","",""
"1","1","rating","canvas-keyboard-response","151","343157","0.0-11.0-0.70","101","2022-3-10","15:5:4","1","19","[""White""]","No","Female","812530","","","","","","","","293","30","113","40","40","1",""
"null","null","clear_screen","canvas-keyboard-response","152","343411","0.0-11.0-1.70","101","2022-3-10","15:5:4","1","19","[""White""]","No","Female","812530","","","","","","","","293","30","113","40","40","",""
"2495","2","rating","canvas-keyboard-response","153","345918","0.0-11.0-0.71","101","2022-3-10","15:5:4","1","19","[""White""]","No","Female","812530","","","","","","","","67","85","85","10","40","0",""
"null","null","clear_screen","canvas-keyboard-response","154","346176","0.0-11.0-1.71","101","2022-3-10","15:5:4","1","19","[""White""]","No","Female","812530","","","","","","","","67","85","85","10","40","",""
"1636","2","rating","canvas-keyboard-response","155","347821","0.0-11.0-0.72","101","2022-3-10","15:5:4","1","19","[""White""]","No","Female","812530","","","","","","","","91","140","30","10","17","0",""
"null","null","clear_screen","canvas-keyboard-response","156","348081","0.0-11.0-1.72","101","2022-3-10","15:5:4","1","19","[""White""]","No","Female","812530","","","","","","","","91","140","30","10","17","",""
"3719","3","rating","canvas-keyboard-response","157","351813","0.0-11.0-0.73","101","2022-3-10","15:5:4","1","19","[""White""]","No","Female","812530","","","","","","","","83","113","85","10","33","1",""
"null","null","clear_screen","canvas-keyboard-response","158","352071","0.0-11.0-1.73","101","2022-3-10","15:5:4","1","19","[""White""]","No","Female","812530","","","","","","","","83","113","85","10","33","",""
"2337","7","rating","canvas-keyboard-response","159","354420","0.0-11.0-0.74","101","2022-3-10","15:5:4","1","19","[""White""]","No","Female","812530","","","","","","","","213","57","30","25","33","1",""
"null","null","clear_screen","canvas-keyboard-response","160","354679","0.0-11.0-1.74","101","2022-3-10","15:5:4","1","19","[""White""]","No","Female","812530","","","","","","","","213","57","30","25","33","",""
"2144","8","rating","canvas-keyboard-response","161","356838","0.0-11.0-0.75","101","2022-3-10","15:5:4","1","19","[""White""]","No","Female","812530","","","","","","","","52","85","85","10","17","1",""
"null","null","clear_screen","canvas-keyboard-response","162","357099","0.0-11.0-1.75","101","2022-3-10","15:5:4","1","19","[""White""]","No","Female","812530","","","","","","","","52","85","85","10","17","",""
"2861","7","rating","canvas-keyboard-response","163","359973","0.0-11.0-0.76","101","2022-3-10","15:5:4","1","19","[""White""]","No","Female","812530","","","","","","","","31","57","113","10","17","1",""
"null","null","clear_screen","canvas-keyboard-response","164","360231","0.0-11.0-1.76","101","2022-3-10","15:5:4","1","19","[""White""]","No","Female","812530","","","","","","","","31","57","113","10","17","",""
"2681","4","rating","canvas-keyboard-response","165","362926","0.0-11.0-0.77","101","2022-3-10","15:5:4","1","19","[""White""]","No","Female","812530","","","","","","","","89","113","113","10","40","0",""
"null","null","clear_screen","canvas-keyboard-response","166","363184","0.0-11.0-1.77","101","2022-3-10","15:5:4","1","19","[""White""]","No","Female","812530","","","","","","","","89","113","113","10","40","",""
"2105","7","rating","canvas-keyboard-response","167","365301","0.0-11.0-0.78","101","2022-3-10","15:5:4","1","19","[""White""]","No","Female","812530","","","","","","","","113","30","113","17","17","1",""
"null","null","clear_screen","canvas-keyboard-response","168","365559","0.0-11.0-1.78","101","2022-3-10","15:5:4","1","19","[""White""]","No","Female","812530","","","","","","","","113","30","113","17","17","",""
"2476","8","rating","canvas-keyboard-response","169","368044","0.0-11.0-0.79","101","2022-3-10","15:5:4","1","19","[""White""]","No","Female","812530","","","","","","","","256","30","57","33","33","0",""
"null","null","clear_screen","canvas-keyboard-response","170","368307","0.0-11.0-1.79","101","2022-3-10","15:5:4","1","19","[""White""]","No","Female","812530","","","","","","","","256","30","57","33","33","",""
"2072","8","rating","canvas-keyboard-response","171","370389","0.0-11.0-0.80","101","2022-3-10","15:5:4","1","19","[""White""]","No","Female","812530","","","","","","","","172","113","57","17","33","0",""
"null","null","clear_screen","canvas-keyboard-response","172","370647","0.0-11.0-1.80","101","2022-3-10","15:5:4","1","19","[""White""]","No","Female","812530","","","","","","","","172","113","57","17","33","",""
"1496","8","rating","canvas-keyboard-response","173","372159","0.0-11.0-0.81","101","2022-3-10","15:5:4","1","19","[""White""]","No","Female","812530","","","","","","","","218","57","30","25","40","0",""
"null","null","clear_screen","canvas-keyboard-response","174","372417","0.0-11.0-1.81","101","2022-3-10","15:5:4","1","19","[""White""]","No","Female","812530","","","","","","","","218","57","30","25","40","",""
"1661","9","rating","canvas-keyboard-response","175","374093","0.0-11.0-0.82","101","2022-3-10","15:5:4","1","19","[""White""]","No","Female","812530","","","","","","","","246","140","30","25","33","0",""
"null","null","clear_screen","canvas-keyboard-response","176","374351","0.0-11.0-1.82","101","2022-3-10","15:5:4","1","19","[""White""]","No","Female","812530","","","","","","","","246","140","30","25","33","",""
"2171","8","rating","canvas-keyboard-response","177","376533","0.0-11.0-0.83","101","2022-3-10","15:5:4","1","19","[""White""]","No","Female","812530","","","","","","","","167","113","57","17","25","1",""
"null","null","clear_screen","canvas-keyboard-response","178","376796","0.0-11.0-1.83","101","2022-3-10","15:5:4","1","19","[""White""]","No","Female","812530","","","","","","","","167","113","57","17","25","",""
"1283","9","rating","canvas-keyboard-response","179","378093","0.0-11.0-0.84","101","2022-3-10","15:5:4","1","19","[""White""]","No","Female","812530","","","","","","","","115","30","30","17","25","0",""
"null","null","clear_screen","canvas-keyboard-response","180","378353","0.0-11.0-1.84","101","2022-3-10","15:5:4","1","19","[""White""]","No","Female","812530","","","","","","","","115","30","30","17","25","",""
"1913","7","rating","canvas-keyboard-response","181","380277","0.0-11.0-0.85","101","2022-3-10","15:5:4","1","19","[""White""]","No","Female","812530","","","","","","","","94","140","113","10","17","1",""
"null","null","clear_screen","canvas-keyboard-response","182","380537","0.0-11.0-1.85","101","2022-3-10","15:5:4","1","19","[""White""]","No","Female","812530","","","","","","","","94","140","113","10","17","",""
"1517","6","rating","canvas-keyboard-response","183","382068","0.0-11.0-0.86","101","2022-3-10","15:5:4","1","19","[""White""]","No","Female","812530","","","","","","","","126","30","57","17","40","0",""
"null","null","clear_screen","canvas-keyboard-response","184","382324","0.0-11.0-1.86","101","2022-3-10","15:5:4","1","19","[""White""]","No","Female","812530","","","","","","","","126","30","57","17","40","",""
"1818","2","rating","canvas-keyboard-response","185","384157","0.0-11.0-0.87","101","2022-3-10","15:5:4","1","19","[""White""]","No","Female","812530","","","","","","","","90","113","140","10","40","1",""
"null","null","clear_screen","canvas-keyboard-response","186","384416","0.0-11.0-1.87","101","2022-3-10","15:5:4","1","19","[""White""]","No","Female","812530","","","","","","","","90","113","140","10","40","",""
"1123","1","rating","canvas-keyboard-response","187","385549","0.0-11.0-0.88","101","2022-3-10","15:5:4","1","19","[""White""]","No","Female","812530","","","","","","","","59","85","140","10","25","1",""
"null","null","clear_screen","canvas-keyboard-response","188","385811","0.0-11.0-1.88","101","2022-3-10","15:5:4","1","19","[""White""]","No","Female","812530","","","","","","","","59","85","140","10","25","",""
"1251","4","rating","canvas-keyboard-response","189","387069","0.0-11.0-0.89","101","2022-3-10","15:5:4","1","19","[""White""]","No","Female","812530","","","","","","","","144","57","57","17","40","1",""
"null","null","clear_screen","canvas-keyboard-response","190","387330","0.0-11.0-1.89","101","2022-3-10","15:5:4","1","19","[""White""]","No","Female","812530","","","","","","","","144","57","57","17","40","",""
"1671","8","rating","canvas-keyboard-response","191","389013","0.0-11.0-0.90","101","2022-3-10","15:5:4","1","19","[""White""]","No","Female","812530","","","","","","","","116","30","57","17","25","0",""
"null","null","clear_screen","canvas-keyboard-response","192","389273","0.0-11.0-1.90","101","2022-3-10","15:5:4","1","19","[""White""]","No","Female","812530","","","","","","","","116","30","57","17","25","",""
"1367","2","rating","canvas-keyboard-response","193","390654","0.0-11.0-0.91","101","2022-3-10","15:5:4","1","19","[""White""]","No","Female","812530","","","","","","","","109","140","113","10","40","1",""
"null","null","clear_screen","canvas-keyboard-response","194","390914","0.0-11.0-1.91","101","2022-3-10","15:5:4","1","19","[""White""]","No","Female","812530","","","","","","","","109","140","113","10","40","",""
"7188","5","rating","canvas-keyboard-response","195","398117","0.0-11.0-0.92","101","2022-3-10","15:5:4","1","19","[""White""]","No","Female","812530","","","","","","","","120","30","30","17","33","0",""
"null","null","clear_screen","canvas-keyboard-response","196","398377","0.0-11.0-1.92","101","2022-3-10","15:5:4","1","19","[""White""]","No","Female","812530","","","","","","","","120","30","30","17","33","",""
"3134","2","rating","canvas-keyboard-response","197","401525","0.0-11.0-0.93","101","2022-3-10","15:5:4","1","19","[""White""]","No","Female","812530","","","","","","","","278","85","113","33","40","1",""
"null","null","clear_screen","canvas-keyboard-response","198","401783","0.0-11.0-1.93","101","2022-3-10","15:5:4","1","19","[""White""]","No","Female","812530","","","","","","","","278","85","113","33","40","",""
"1468","5","rating","canvas-keyboard-response","199","403261","0.0-11.0-0.94","101","2022-3-10","15:5:4","1","19","[""White""]","No","Female","812530","","","","","","","","124","30","140","17","33","0",""
"null","null","clear_screen","canvas-keyboard-response","200","403519","0.0-11.0-1.94","101","2022-3-10","15:5:4","1","19","[""White""]","No","Female","812530","","","","","","","","124","30","140","17","33","",""
"1332","4","rating","canvas-keyboard-response","201","404862","0.0-11.0-0.95","101","2022-3-10","15:5:4","1","19","[""White""]","No","Female","812530","","","","","","","","152","85","85","17","25","0",""
"null","null","clear_screen","canvas-keyboard-response","202","405122","0.0-11.0-1.95","101","2022-3-10","15:5:4","1","19","[""White""]","No","Female","812530","","","","","","","","152","85","85","17","25","",""
"1808","2","rating","canvas-keyboard-response","203","406941","0.0-11.0-0.96","101","2022-3-10","15:5:4","1","19","[""White""]","No","Female","812530","","","","","","","","78","113","85","10","25","1",""
"null","null","clear_screen","canvas-keyboard-response","204","407199","0.0-11.0-1.96","101","2022-3-10","15:5:4","1","19","[""White""]","No","Female","812530","","","","","","","","78","113","85","10","25","",""
"3024","5","rating","canvas-keyboard-response","205","410237","0.0-11.0-0.97","101","2022-3-10","15:5:4","1","19","[""White""]","No","Female","812530","","","","","","","","209","30","140","25","40","1",""
"null","null","clear_screen","canvas-keyboard-response","206","410497","0.0-11.0-1.97","101","2022-3-10","15:5:4","1","19","[""White""]","No","Female","812530","","","","","","","","209","30","140","25","40","",""
"2831","2","rating","canvas-keyboard-response","207","413342","0.0-11.0-0.98","101","2022-3-10","15:5:4","1","19","[""White""]","No","Female","812530","","","","","","","","171","113","30","17","33","1",""
"null","null","clear_screen","canvas-keyboard-response","208","413600","0.0-11.0-1.98","101","2022-3-10","15:5:4","1","19","[""White""]","No","Female","812530","","","","","","","","171","113","30","17","33","",""
"2275","2","rating","canvas-keyboard-response","209","415886","0.0-11.0-0.99","101","2022-3-10","15:5:4","1","19","[""White""]","No","Female","812530","","","","","","","","267","57","140","33","33","1",""
"null","null","clear_screen","canvas-keyboard-response","210","416147","0.0-11.0-1.99","101","2022-3-10","15:5:4","1","19","[""White""]","No","Female","812530","","","","","","","","267","57","140","33","33","",""
"1753","7","rating","canvas-keyboard-response","211","417911","0.0-11.0-0.100","101","2022-3-10","15:5:4","1","19","[""White""]","No","Female","812530","","","","","","","","185","140","140","17","25","1",""
"null","null","clear_screen","canvas-keyboard-response","212","418173","0.0-11.0-1.100","101","2022-3-10","15:5:4","1","19","[""White""]","No","Female","812530","","","","","","","","185","140","140","17","25","",""
"1220","2","rating","canvas-keyboard-response","213","419405","0.0-11.0-0.101","101","2022-3-10","15:5:4","1","19","[""White""]","No","Female","812530","","","","","","","","39","57","57","10","33","1",""
"null","null","clear_screen","canvas-keyboard-response","214","419666","0.0-11.0-1.101","101","2022-3-10","15:5:4","1","19","[""White""]","No","Female","812530","","","","","","","","39","57","57","10","33","",""
"2131","4","rating","canvas-keyboard-response","215","421813","0.0-11.0-0.102","101","2022-3-10","15:5:4","1","19","[""White""]","No","Female","812530","","","","","","","","192","140","57","17","40","1",""
"null","null","clear_screen","canvas-keyboard-response","216","422075","0.0-11.0-1.102","101","2022-3-10","15:5:4","1","19","[""White""]","No","Female","812530","","","","","","","","192","140","57","17","40","",""
"1147","8","rating","canvas-keyboard-response","217","423238","0.0-11.0-0.103","101","2022-3-10","15:5:4","1","19","[""White""]","No","Female","812530","","","","","","","","205","30","30","25","40","0",""
"null","null","clear_screen","canvas-keyboard-response","218","423499","0.0-11.0-1.103","101","2022-3-10","15:5:4","1","19","[""White""]","No","Female","812530","","","","","","","","205","30","30","25","40","",""
"1432","1","rating","canvas-keyboard-response","219","424941","0.0-11.0-0.104","101","2022-3-10","15:5:4","1","19","[""White""]","No","Female","812530","","","","","","","","24","30","140","10","40","0",""
"null","null","clear_screen","canvas-keyboard-response","220","425200","0.0-11.0-1.104","101","2022-3-10","15:5:4","1","19","[""White""]","No","Female","812530","","","","","","","","24","30","140","10","40","",""
"1515","2","rating","canvas-keyboard-response","221","426726","0.0-11.0-0.105","101","2022-3-10","15:5:4","1","19","[""White""]","No","Female","812530","","","","","","","","19","30","140","10","33","0",""
"null","null","clear_screen","canvas-keyboard-response","222","426988","0.0-11.0-1.105","101","2022-3-10","15:5:4","1","19","[""White""]","No","Female","812530","","","","","","","","19","30","140","10","33","",""
"1797","4","rating","canvas-keyboard-response","223","428797","0.0-11.0-0.106","101","2022-3-10","15:5:4","1","19","[""White""]","No","Female","812530","","","","","","","","211","57","113","25","25","1",""
"null","null","clear_screen","canvas-keyboard-response","224","429060","0.0-11.0-1.106","101","2022-3-10","15:5:4","1","19","[""White""]","No","Female","812530","","","","","","","","211","57","113","25","25","",""
"1338","7","rating","canvas-keyboard-response","225","430413","0.0-11.0-0.107","101","2022-3-10","15:5:4","1","19","[""White""]","No","Female","812530","","","","","","","","153","85","113","17","25","0",""
"null","null","clear_screen","canvas-keyboard-response","226","430673","0.0-11.0-1.107","101","2022-3-10","15:5:4","1","19","[""White""]","No","Female","812530","","","","","","","","153","85","113","17","25","",""
"3194","4","rating","canvas-keyboard-response","227","433877","0.0-11.0-0.108","101","2022-3-10","15:5:4","1","19","[""White""]","No","Female","812530","","","","","","","","65","85","30","10","40","0",""
"null","null","clear_screen","canvas-keyboard-response","228","434141","0.0-11.0-1.108","101","2022-3-10","15:5:4","1","19","[""White""]","No","Female","812530","","","","","","","","65","85","30","10","40","",""
"1470","8","rating","canvas-keyboard-response","229","435621","0.0-11.0-0.109","101","2022-3-10","15:5:4","1","19","[""White""]","No","Female","812530","","","","","","","","225","85","30","25","33","0",""
"null","null","clear_screen","canvas-keyboard-response","230","435881","0.0-11.0-1.109","101","2022-3-10","15:5:4","1","19","[""White""]","No","Female","812530","","","","","","","","225","85","30","25","33","",""
"1099","2","rating","canvas-keyboard-response","231","436990","0.0-11.0-0.110","101","2022-3-10","15:5:4","1","19","[""White""]","No","Female","812530","","","","","","","","17","30","85","10","33","1",""
"null","null","clear_screen","canvas-keyboard-response","232","437249","0.0-11.0-1.110","101","2022-3-10","15:5:4","1","19","[""White""]","No","Female","812530","","","","","","","","17","30","85","10","33","",""
"1192","8","rating","canvas-keyboard-response","233","438453","0.0-11.0-0.111","101","2022-3-10","15:5:4","1","19","[""White""]","No","Female","812530","","","","","","","","296","57","113","40","40","0",""
"null","null","clear_screen","canvas-keyboard-response","234","438711","0.0-11.0-1.111","101","2022-3-10","15:5:4","1","19","[""White""]","No","Female","812530","","","","","","","","296","57","113","40","40","",""
"1899","7","rating","canvas-keyboard-response","235","440622","0.0-11.0-0.112","101","2022-3-10","15:5:4","1","19","[""White""]","No","Female","812530","","","","","","","","198","30","113","25","25","1",""
"null","null","clear_screen","canvas-keyboard-response","236","440883","0.0-11.0-1.112","101","2022-3-10","15:5:4","1","19","[""White""]","No","Female","812530","","","","","","","","198","30","113","25","25","",""
"1422","2","rating","canvas-keyboard-response","237","442317","0.0-11.0-0.113","101","2022-3-10","15:5:4","1","19","[""White""]","No","Female","812530","","","","","","","","245","113","140","25","40","0",""
"null","null","clear_screen","canvas-keyboard-response","238","442578","0.0-11.0-1.113","101","2022-3-10","15:5:4","1","19","[""White""]","No","Female","812530","","","","","","","","245","113","140","25","40","",""
"1168","8","rating","canvas-keyboard-response","239","443757","0.0-11.0-0.114","101","2022-3-10","15:5:4","1","19","[""White""]","No","Female","812530","","","","","","","","289","140","113","33","40","1",""
"null","null","clear_screen","canvas-keyboard-response","240","444017","0.0-11.0-1.114","101","2022-3-10","15:5:4","1","19","[""White""]","No","Female","812530","","","","","","","","289","140","113","33","40","",""
"1528","6","rating","canvas-keyboard-response","241","445557","0.0-11.0-0.115","101","2022-3-10","15:5:4","1","19","[""White""]","No","Female","812530","","","","","","","","230","85","30","25","40","0",""
"null","null","clear_screen","canvas-keyboard-response","242","445818","0.0-11.0-1.115","101","2022-3-10","15:5:4","1","19","[""White""]","No","Female","812530","","","","","","","","230","85","30","25","40","",""
"2719","7","rating","canvas-keyboard-response","243","448550","0.0-11.0-0.116","101","2022-3-10","15:5:4","1","19","[""White""]","No","Female","812530","","","","","","","","231","85","57","25","40","1",""
"null","null","clear_screen","canvas-keyboard-response","244","448811","0.0-11.0-1.116","101","2022-3-10","15:5:4","1","19","[""White""]","No","Female","812530","","","","","","","","231","85","57","25","40","",""
"1217","8","rating","canvas-keyboard-response","245","450037","0.0-11.0-0.117","101","2022-3-10","15:5:4","1","19","[""White""]","No","Female","812530","","","","","","","","182","140","57","17","25","0",""
"null","null","clear_screen","canvas-keyboard-response","246","450296","0.0-11.0-1.117","101","2022-3-10","15:5:4","1","19","[""White""]","No","Female","812530","","","","","","","","182","140","57","17","25","",""
"751","8","rating","canvas-keyboard-response","247","451063","0.0-11.0-0.118","101","2022-3-10","15:5:4","1","19","[""White""]","No","Female","812530","","","","","","","","257","30","85","33","33","1",""
"null","null","clear_screen","canvas-keyboard-response","248","451324","0.0-11.0-1.118","101","2022-3-10","15:5:4","1","19","[""White""]","No","Female","812530","","","","","","","","257","30","85","33","33","",""
"1462","5","rating","canvas-keyboard-response","249","452797","0.0-11.0-0.119","101","2022-3-10","15:5:4","1","19","[""White""]","No","Female","812530","","","","","","","","50","85","30","10","17","1",""
"null","null","clear_screen","canvas-keyboard-response","250","453056","0.0-11.0-1.119","101","2022-3-10","15:5:4","1","19","[""White""]","No","Female","812530","","","","","","","","50","85","30","10","17","",""
"1255","8","rating","canvas-keyboard-response","251","454326","0.0-11.0-0.120","101","2022-3-10","15:5:4","1","19","[""White""]","No","Female","812530","","","","","","","","155","85","30","17","33","0",""
"4","7","clear_screen","canvas-keyboard-response","252","454340","0.0-11.0-1.120","101","2022-3-10","15:5:4","1","19","[""White""]","No","Female","812530","","","","","","","","155","85","30","17","33","",""
"824","8","rating","canvas-keyboard-response","253","455174","0.0-11.0-0.121","101","2022-3-10","15:5:4","1","19","[""White""]","No","Female","812530","","","","","","","","131","57","113","17","17","0",""
"null","null","clear_screen","canvas-keyboard-response","254","455433","0.0-11.0-1.121","101","2022-3-10","15:5:4","1","19","[""White""]","No","Female","812530","","","","","","","","131","57","113","17","17","",""
"2054","5","rating","canvas-keyboard-response","255","457501","0.0-11.0-0.122","101","2022-3-10","15:5:4","1","19","[""White""]","No","Female","812530","","","","","","","","108","140","85","10","40","0",""
"null","null","clear_screen","canvas-keyboard-response","256","457760","0.0-11.0-1.122","101","2022-3-10","15:5:4","1","19","[""White""]","No","Female","812530","","","","","","","","108","140","85","10","40","",""
"2874","2","rating","canvas-keyboard-response","257","460645","0.0-11.0-0.123","101","2022-3-10","15:5:4","1","19","[""White""]","No","Female","812530","","","","","","","","86","113","30","10","40","1",""
"null","null","clear_screen","canvas-keyboard-response","258","460906","0.0-11.0-1.123","101","2022-3-10","15:5:4","1","19","[""White""]","No","Female","812530","","","","","","","","86","113","30","10","40","",""
"1030","2","rating","canvas-keyboard-response","259","461949","0.0-11.0-0.124","101","2022-3-10","15:5:4","1","19","[""White""]","No","Female","812530","","","","","","","","38","57","30","10","33","0",""
"null","null","clear_screen","canvas-keyboard-response","260","462208","0.0-11.0-1.124","101","2022-3-10","15:5:4","1","19","[""White""]","No","Female","812530","","","","","","","","38","57","30","10","33","",""
"2959","6","rating","canvas-keyboard-response","261","465182","0.0-11.0-0.125","101","2022-3-10","15:5:4","1","19","[""White""]","No","Female","812530","","","","","","","","45","57","85","10","40","0",""
"null","null","clear_screen","canvas-keyboard-response","262","465440","0.0-11.0-1.125","101","2022-3-10","15:5:4","1","19","[""White""]","No","Female","812530","","","","","","","","45","57","85","10","40","",""
"3145","8","rating","canvas-keyboard-response","263","468598","0.0-11.0-0.126","101","2022-3-10","15:5:4","1","19","[""White""]","No","Female","812530","","","","","","","","8","30","113","10","17","0",""
"null","null","clear_screen","canvas-keyboard-response","264","468857","0.0-11.0-1.126","101","2022-3-10","15:5:4","1","19","[""White""]","No","Female","812530","","","","","","","","8","30","113","10","17","",""
"1167","2","rating","canvas-keyboard-response","265","470038","0.0-11.0-0.127","101","2022-3-10","15:5:4","1","19","[""White""]","No","Female","812530","","","","","","","","104","140","113","10","33","1",""
"null","null","clear_screen","canvas-keyboard-response","266","470296","0.0-11.0-1.127","101","2022-3-10","15:5:4","1","19","[""White""]","No","Female","812530","","","","","","","","104","140","113","10","33","",""
"1546","7","rating","canvas-keyboard-response","267","471853","0.0-11.0-0.128","101","2022-3-10","15:5:4","1","19","[""White""]","No","Female","812530","","","","","","","","288","140","85","33","40","0",""
"null","null","clear_screen","canvas-keyboard-response","268","472113","0.0-11.0-1.128","101","2022-3-10","15:5:4","1","19","[""White""]","No","Female","812530","","","","","","","","288","140","85","33","40","",""
"1265","8","rating","canvas-keyboard-response","269","473389","0.0-11.0-0.129","101","2022-3-10","15:5:4","1","19","[""White""]","No","Female","812530","","","","","","","","73","113","85","10","17","0",""
"null","null","clear_screen","canvas-keyboard-response","270","473650","0.0-11.0-1.129","101","2022-3-10","15:5:4","1","19","[""White""]","No","Female","812530","","","","","","","","73","113","85","10","17","",""
"1917","5","rating","canvas-keyboard-response","271","475581","0.0-11.0-0.130","101","2022-3-10","15:5:4","1","19","[""White""]","No","Female","812530","","","","","","","","217","57","140","25","33","1",""
"null","null","clear_screen","canvas-keyboard-response","272","475840","0.0-11.0-1.130","101","2022-3-10","15:5:4","1","19","[""White""]","No","Female","812530","","","","","","","","217","57","140","25","33","",""
"1306","4","rating","canvas-keyboard-response","273","477157","0.0-11.0-0.131","101","2022-3-10","15:5:4","1","19","[""White""]","No","Female","812530","","","","","","","","118","30","113","17","25","0",""
"null","null","clear_screen","canvas-keyboard-response","274","477417","0.0-11.0-1.131","101","2022-3-10","15:5:4","1","19","[""White""]","No","Female","812530","","","","","","","","118","30","113","17","25","",""
"1649","4","rating","canvas-keyboard-response","275","479077","0.0-11.0-0.132","101","2022-3-10","15:5:4","1","19","[""White""]","No","Female","812530","","","","","","","","170","113","140","17","25","0",""
"null","null","clear_screen","canvas-keyboard-response","276","479339","0.0-11.0-1.132","101","2022-3-10","15:5:4","1","19","[""White""]","No","Female","812530","","","","","","","","170","113","140","17","25","",""
"1183","8","rating","canvas-keyboard-response","277","480533","0.0-11.0-0.133","101","2022-3-10","15:5:4","1","19","[""White""]","No","Female","812530","","","","","","","","298","85","113","40","40","0",""
"null","null","clear_screen","canvas-keyboard-response","278","480793","0.0-11.0-1.133","101","2022-3-10","15:5:4","1","19","[""White""]","No","Female","812530","","","","","","","","298","85","113","40","40","",""
"1587","4","rating","canvas-keyboard-response","279","482389","0.0-11.0-0.134","101","2022-3-10","15:5:4","1","19","[""White""]","No","Female","812530","","","","","","","","88","113","85","10","40","1",""
"null","null","clear_screen","canvas-keyboard-response","280","482651","0.0-11.0-1.134","101","2022-3-10","15:5:4","1","19","[""White""]","No","Female","812530","","","","","","","","88","113","85","10","40","",""
"1767","6","rating","canvas-keyboard-response","281","484430","0.0-11.0-0.135","101","2022-3-10","15:5:4","1","19","[""White""]","No","Female","812530","","","","","","","","134","57","57","17","25","1",""
"null","null","clear_screen","canvas-keyboard-response","282","484688","0.0-11.0-1.135","101","2022-3-10","15:5:4","1","19","[""White""]","No","Female","812530","","","","","","","","134","57","57","17","25","",""
"1119","4","rating","canvas-keyboard-response","283","485822","0.0-11.0-0.136","101","2022-3-10","15:5:4","1","19","[""White""]","No","Female","812530","","","","","","","","181","140","30","17","25","0",""
"null","null","clear_screen","canvas-keyboard-response","284","486079","0.0-11.0-1.136","101","2022-3-10","15:5:4","1","19","[""White""]","No","Female","812530","","","","","","","","181","140","30","17","25","",""
"2727","3","rating","canvas-keyboard-response","285","488821","0.0-11.0-0.137","101","2022-3-10","15:5:4","1","19","[""White""]","No","Female","812530","","","","","","","","252","140","57","25","40","0",""
"null","null","clear_screen","canvas-keyboard-response","286","489081","0.0-11.0-1.137","101","2022-3-10","15:5:4","1","19","[""White""]","No","Female","812530","","","","","","","","252","140","57","25","40","",""
"1499","7","rating","canvas-keyboard-response","287","490589","0.0-11.0-0.138","101","2022-3-10","15:5:4","1","19","[""White""]","No","Female","812530","","","","","","","","197","30","85","25","25","1",""
"null","null","clear_screen","canvas-keyboard-response","288","490847","0.0-11.0-1.138","101","2022-3-10","15:5:4","1","19","[""White""]","No","Female","812530","","","","","","","","197","30","85","25","25","",""
"1655","6","rating","canvas-keyboard-response","289","492517","0.0-11.0-0.139","101","2022-3-10","15:5:4","1","19","[""White""]","No","Female","812530","","","","","","","","121","30","57","17","33","0",""
"null","null","clear_screen","canvas-keyboard-response","290","492776","0.0-11.0-1.139","101","2022-3-10","15:5:4","1","19","[""White""]","No","Female","812530","","","","","","","","121","30","57","17","33","",""
"953","5","rating","canvas-keyboard-response","291","493741","0.0-11.0-0.140","101","2022-3-10","15:5:4","1","19","[""White""]","No","Female","812530","","","","","","","","35","57","85","10","25","0",""
"null","null","clear_screen","canvas-keyboard-response","292","494000","0.0-11.0-1.140","101","2022-3-10","15:5:4","1","19","[""White""]","No","Female","812530","","","","","","","","35","57","85","10","25","",""
"1170","8","rating","canvas-keyboard-response","293","495182","0.0-11.0-0.141","101","2022-3-10","15:5:4","1","19","[""White""]","No","Female","812530","","","","","","","","292","30","85","40","40","1",""
"null","null","clear_screen","canvas-keyboard-response","294","495445","0.0-11.0-1.141","101","2022-3-10","15:5:4","1","19","[""White""]","No","Female","812530","","","","","","","","292","30","85","40","40","",""
"1493","6","rating","canvas-keyboard-response","295","496950","0.0-11.0-0.142","101","2022-3-10","15:5:4","1","19","[""White""]","No","Female","812530","","","","","","","","16","30","57","10","33","1",""
"null","null","clear_screen","canvas-keyboard-response","296","497209","0.0-11.0-1.142","101","2022-3-10","15:5:4","1","19","[""White""]","No","Female","812530","","","","","","","","16","30","57","10","33","",""
"1296","7","rating","canvas-keyboard-response","297","498519","0.0-11.0-0.143","101","2022-3-10","15:5:4","1","19","[""White""]","No","Female","812530","","","","","","","","93","140","85","10","17","0",""
"null","null","clear_screen","canvas-keyboard-response","298","498780","0.0-11.0-1.143","101","2022-3-10","15:5:4","1","19","[""White""]","No","Female","812530","","","","","","","","93","140","85","10","17","",""
"4295","7","rating","canvas-keyboard-response","299","503086","0.0-11.0-0.144","101","2022-3-10","15:5:4","1","19","[""White""]","No","Female","812530","","","","","","","","57","85","85","10","25","0",""
"null","null","clear_screen","canvas-keyboard-response","300","503343","0.0-11.0-1.144","101","2022-3-10","15:5:4","1","19","[""White""]","No","Female","812530","","","","","","","","57","85","85","10","25","",""
"1628","2","rating","canvas-keyboard-response","301","504981","0.0-11.0-0.145","101","2022-3-10","15:5:4","1","19","[""White""]","No","Female","812530","","","","","","","","173","113","85","17","33","1",""
"null","null","clear_screen","canvas-keyboard-response","302","505240","0.0-11.0-1.145","101","2022-3-10","15:5:4","1","19","[""White""]","No","Female","812530","","","","","","","","173","113","85","17","33","",""
"1263","8","rating","canvas-keyboard-response","303","506518","0.0-11.0-0.146","101","2022-3-10","15:5:4","1","19","[""White""]","No","Female","812530","","","","","","","","294","30","140","40","40","1",""
"null","null","clear_screen","canvas-keyboard-response","304","506778","0.0-11.0-1.146","101","2022-3-10","15:5:4","1","19","[""White""]","No","Female","812530","","","","","","","","294","30","140","40","40","",""
"2021","8","rating","canvas-keyboard-response","305","508804","0.0-11.0-0.147","101","2022-3-10","15:5:4","1","19","[""White""]","No","Female","812530","","","","","","","","266","57","113","33","33","0",""
"null","null","clear_screen","canvas-keyboard-response","306","509060","0.0-11.0-1.147","101","2022-3-10","15:5:4","1","19","[""White""]","No","Female","812530","","","","","","","","266","57","113","33","33","",""
"1676","3","rating","canvas-keyboard-response","307","510749","0.0-11.0-0.148","101","2022-3-10","15:5:4","1","19","[""White""]","No","Female","812530","","","","","","","","40","57","85","10","33","0",""
"null","null","clear_screen","canvas-keyboard-response","308","511008","0.0-11.0-1.148","101","2022-3-10","15:5:4","1","19","[""White""]","No","Female","812530","","","","","","","","40","57","85","10","33","",""
"3005","6","rating","canvas-keyboard-response","309","514030","0.0-11.0-0.149","101","2022-3-10","15:5:4","1","19","[""White""]","No","Female","812530","","","","","","","","189","140","113","17","33","1",""
"null","null","clear_screen","canvas-keyboard-response","310","514291","0.0-11.0-1.149","101","2022-3-10","15:5:4","1","19","[""White""]","No","Female","812530","","","","","","","","189","140","113","17","33","",""
"1457","2","rating","canvas-keyboard-response","311","515757","0.0-11.0-0.150","101","2022-3-10","15:5:4","1","19","[""White""]","No","Female","812530","","","","","","","","98","140","85","10","25","0",""
"null","null","clear_screen","canvas-keyboard-response","312","516017","0.0-11.0-1.150","101","2022-3-10","15:5:4","1","19","[""White""]","No","Female","812530","","","","","","","","98","140","85","10","25","",""
"1826","8","rating","canvas-keyboard-response","313","517854","0.0-11.0-0.151","101","2022-3-10","15:5:4","1","19","[""White""]","No","Female","812530","","","","","","","","27","57","140","10","10","0",""
"null","null","clear_screen","canvas-keyboard-response","314","518113","0.0-11.0-1.151","101","2022-3-10","15:5:4","1","19","[""White""]","No","Female","812530","","","","","","","","27","57","140","10","10","",""
"1367","8","rating","canvas-keyboard-response","315","519494","0.0-11.0-0.152","101","2022-3-10","15:5:4","1","19","[""White""]","No","Female","812530","","","","","","","","286","140","30","33","40","0",""
"null","null","clear_screen","canvas-keyboard-response","316","519755","0.0-11.0-1.152","101","2022-3-10","15:5:4","1","19","[""White""]","No","Female","812530","","","","","","","","286","140","30","33","40","",""
"1351","7","rating","canvas-keyboard-response","317","521117","0.0-11.0-0.153","101","2022-3-10","15:5:4","1","19","[""White""]","No","Female","812530","","","","","","","","262","30","85","33","40","1",""
"null","null","clear_screen","canvas-keyboard-response","318","521374","0.0-11.0-1.153","101","2022-3-10","15:5:4","1","19","[""White""]","No","Female","812530","","","","","","","","262","30","85","33","40","",""
"1450","6","rating","canvas-keyboard-response","319","522837","0.0-11.0-0.154","101","2022-3-10","15:5:4","1","19","[""White""]","No","Female","812530","","","","","","","","96","140","30","10","25","0",""
"null","null","clear_screen","canvas-keyboard-response","320","523096","0.0-11.0-1.154","101","2022-3-10","15:5:4","1","19","[""White""]","No","Female","812530","","","","","","","","96","140","30","10","25","",""
"6735","7","rating","canvas-keyboard-response","321","529846","0.0-11.0-0.155","101","2022-3-10","15:5:4","1","19","[""White""]","No","Female","812530","","","","","","","","233","85","113","25","40","1",""
"null","null","clear_screen","canvas-keyboard-response","322","530103","0.0-11.0-1.155","101","2022-3-10","15:5:4","1","19","[""White""]","No","Female","812530","","","","","","","","233","85","113","25","40","",""
"1492","8","rating","canvas-keyboard-response","323","531605","0.0-11.0-0.156","101","2022-3-10","15:5:4","1","19","[""White""]","No","Female","812530","","","","","","","","239","113","113","25","33","1",""
"null","null","clear_screen","canvas-keyboard-response","324","531864","0.0-11.0-1.156","101","2022-3-10","15:5:4","1","19","[""White""]","No","Female","812530","","","","","","","","239","113","113","25","33","",""
"1134","8","rating","canvas-keyboard-response","325","533014","0.0-11.0-0.157","101","2022-3-10","15:5:4","1","19","[""White""]","No","Female","812530","","","","","","","","280","113","140","33","33","0",""
"null","null","clear_screen","canvas-keyboard-response","326","533276","0.0-11.0-1.157","101","2022-3-10","15:5:4","1","19","[""White""]","No","Female","812530","","","","","","","","280","113","140","33","33","",""
"1323","6","rating","canvas-keyboard-response","327","534614","0.0-11.0-0.158","101","2022-3-10","15:5:4","1","19","[""White""]","No","Female","812530","","","","","","","","15","30","30","10","33","1",""
"null","null","clear_screen","canvas-keyboard-response","328","534875","0.0-11.0-1.158","101","2022-3-10","15:5:4","1","19","[""White""]","No","Female","812530","","","","","","","","15","30","30","10","33","",""
"2713","8","rating","canvas-keyboard-response","329","537597","0.0-11.0-0.159","101","2022-3-10","15:5:4","1","19","[""White""]","No","Female","812530","","","","","","","","271","57","113","33","40","1",""
"null","null","clear_screen","canvas-keyboard-response","330","537856","0.0-11.0-1.159","101","2022-3-10","15:5:4","1","19","[""White""]","No","Female","812530","","","","","","","","271","57","113","33","40","",""
"2235","6","rating","canvas-keyboard-response","331","540101","0.0-11.0-0.160","101","2022-3-10","15:5:4","1","19","[""White""]","No","Female","812530","","","","","","","","254","140","113","25","40","1",""
"null","null","clear_screen","canvas-keyboard-response","332","540364","0.0-11.0-1.160","101","2022-3-10","15:5:4","1","19","[""White""]","No","Female","812530","","","","","","","","254","140","113","25","40","",""
"1374","4","rating","canvas-keyboard-response","333","541750","0.0-11.0-0.161","101","2022-3-10","15:5:4","1","19","[""White""]","No","Female","812530","","","","","","","","127","30","85","17","40","0",""
"null","null","clear_screen","canvas-keyboard-response","334","542009","0.0-11.0-1.161","101","2022-3-10","15:5:4","1","19","[""White""]","No","Female","812530","","","","","","","","127","30","85","17","40","",""
"1926","7","rating","canvas-keyboard-response","335","543950","0.0-11.0-0.162","101","2022-3-10","15:5:4","1","19","[""White""]","No","Female","812530","","","","","","","","276","85","57","33","40","1",""
"null","null","clear_screen","canvas-keyboard-response","336","544208","0.0-11.0-1.162","101","2022-3-10","15:5:4","1","19","[""White""]","No","Female","812530","","","","","","","","276","85","57","33","40","",""
"1124","7","rating","canvas-keyboard-response","337","545341","0.0-11.0-0.163","101","2022-3-10","15:5:4","1","19","[""White""]","No","Female","812530","","","","","","","","148","85","113","17","17","1",""
"null","null","clear_screen","canvas-keyboard-response","338","545599","0.0-11.0-1.163","101","2022-3-10","15:5:4","1","19","[""White""]","No","Female","812530","","","","","","","","148","85","113","17","17","",""
"1223","2","rating","canvas-keyboard-response","339","546837","0.0-11.0-0.164","101","2022-3-10","15:5:4","1","19","[""White""]","No","Female","812530","","","","","","","","23","30","113","10","40","0",""
"null","null","clear_screen","canvas-keyboard-response","340","547097","0.0-11.0-1.164","101","2022-3-10","15:5:4","1","19","[""White""]","No","Female","812530","","","","","","","","23","30","113","10","40","",""
"1073","2","rating","canvas-keyboard-response","341","548182","0.0-11.0-0.165","101","2022-3-10","15:5:4","1","19","[""White""]","No","Female","812530","","","","","","","","62","85","85","10","33","1",""
"null","null","clear_screen","canvas-keyboard-response","342","548440","0.0-11.0-1.165","101","2022-3-10","15:5:4","1","19","[""White""]","No","Female","812530","","","","","","","","62","85","85","10","33","",""
"1403","2","rating","canvas-keyboard-response","343","549853","0.0-11.0-0.166","101","2022-3-10","15:5:4","1","19","[""White""]","No","Female","812530","","","","","","","","122","30","85","17","33","0",""
"null","null","clear_screen","canvas-keyboard-response","344","550111","0.0-11.0-1.166","101","2022-3-10","15:5:4","1","19","[""White""]","No","Female","812530","","","","","","","","122","30","85","17","33","",""
"1448","5","rating","canvas-keyboard-response","345","551574","0.0-11.0-0.167","101","2022-3-10","15:5:4","1","19","[""White""]","No","Female","812530","","","","","","","","274","85","140","33","33","0",""
"null","null","clear_screen","canvas-keyboard-response","346","551836","0.0-11.0-1.167","101","2022-3-10","15:5:4","1","19","[""White""]","No","Female","812530","","","","","","","","274","85","140","33","33","",""
"1379","7","rating","canvas-keyboard-response","347","553230","0.0-11.0-0.168","101","2022-3-10","15:5:4","1","19","[""White""]","No","Female","812530","","","","","","","","284","113","113","33","40","1",""
"null","null","clear_screen","canvas-keyboard-response","348","553489","0.0-11.0-1.168","101","2022-3-10","15:5:4","1","19","[""White""]","No","Female","812530","","","","","","","","284","113","113","33","40","",""
"2336","5","rating","canvas-keyboard-response","349","555838","0.0-11.0-0.169","101","2022-3-10","15:5:4","1","19","[""White""]","No","Female","812530","","","","","","","","219","57","57","25","40","1",""
"null","null","clear_screen","canvas-keyboard-response","350","556098","0.0-11.0-1.169","101","2022-3-10","15:5:4","1","19","[""White""]","No","Female","812530","","","","","","","","219","57","57","25","40","",""
"1391","3","rating","canvas-keyboard-response","351","557502","0.0-11.0-0.170","101","2022-3-10","15:5:4","1","19","[""White""]","No","Female","812530","","","","","","","","221","57","113","25","40","0",""
"null","null","clear_screen","canvas-keyboard-response","352","557761","0.0-11.0-1.170","101","2022-3-10","15:5:4","1","19","[""White""]","No","Female","812530","","","","","","","","221","57","113","25","40","",""
"1725","7","rating","canvas-keyboard-response","353","559501","0.0-11.0-0.171","101","2022-3-10","15:5:4","1","19","[""White""]","No","Female","812530","","","","","","","","1","30","57","10","10","0",""
"null","null","clear_screen","canvas-keyboard-response","354","559761","0.0-11.0-1.171","101","2022-3-10","15:5:4","1","19","[""White""]","No","Female","812530","","","","","","","","1","30","57","10","10","",""
"1250","8","rating","canvas-keyboard-response","355","561021","0.0-11.0-0.172","101","2022-3-10","15:5:4","1","19","[""White""]","No","Female","812530","","","","","","","","26","57","113","10","10","1",""
"null","null","clear_screen","canvas-keyboard-response","356","561280","0.0-11.0-1.172","101","2022-3-10","15:5:4","1","19","[""White""]","No","Female","812530","","","","","","","","26","57","113","10","10","",""
"1256","3","rating","canvas-keyboard-response","357","562549","0.0-11.0-0.173","101","2022-3-10","15:5:4","1","19","[""White""]","No","Female","812530","","","","","","","","220","57","85","25","40","1",""
"null","null","clear_screen","canvas-keyboard-response","358","562809","0.0-11.0-1.173","101","2022-3-10","15:5:4","1","19","[""White""]","No","Female","812530","","","","","","","","220","57","85","25","40","",""
"1887","5","rating","canvas-keyboard-response","359","564710","0.0-11.0-0.174","101","2022-3-10","15:5:4","1","19","[""White""]","No","Female","812530","","","","","","","","268","57","30","33","40","1",""
"null","null","clear_screen","canvas-keyboard-response","360","564972","0.0-11.0-1.174","101","2022-3-10","15:5:4","1","19","[""White""]","No","Female","812530","","","","","","","","268","57","30","33","40","",""
"1478","3","rating","canvas-keyboard-response","361","566461","0.0-11.0-0.175","101","2022-3-10","15:5:4","1","19","[""White""]","No","Female","812530","","","","","","","","87","113","57","10","40","1",""
"null","null","clear_screen","canvas-keyboard-response","362","566721","0.0-11.0-1.175","101","2022-3-10","15:5:4","1","19","[""White""]","No","Female","812530","","","","","","","","87","113","57","10","40","",""
"1626","8","rating","canvas-keyboard-response","363","568358","0.0-11.0-0.176","101","2022-3-10","15:5:4","1","19","[""White""]","No","Female","812530","","","","","","","","48","85","113","10","10","1",""
"null","null","clear_screen","canvas-keyboard-response","364","568618","0.0-11.0-1.176","101","2022-3-10","15:5:4","1","19","[""White""]","No","Female","812530","","","","","","","","48","85","113","10","10","",""
"1167","7","rating","canvas-keyboard-response","365","569798","0.0-11.0-0.177","101","2022-3-10","15:5:4","1","19","[""White""]","No","Female","812530","","","","","","","","25","57","85","10","10","1",""
"null","null","clear_screen","canvas-keyboard-response","366","570060","0.0-11.0-1.177","101","2022-3-10","15:5:4","1","19","[""White""]","No","Female","812530","","","","","","","","25","57","85","10","10","",""
"1324","3","rating","canvas-keyboard-response","367","571397","0.0-11.0-0.178","101","2022-3-10","15:5:4","1","19","[""White""]","No","Female","812530","","","","","","","","204","30","140","25","33","0",""
"null","null","clear_screen","canvas-keyboard-response","368","571658","0.0-11.0-1.178","101","2022-3-10","15:5:4","1","19","[""White""]","No","Female","812530","","","","","","","","204","30","140","25","33","",""
"1081","3","rating","canvas-keyboard-response","369","572750","0.0-11.0-0.179","101","2022-3-10","15:5:4","1","19","[""White""]","No","Female","812530","","","","","","","","200","30","30","25","33","1",""
"null","null","clear_screen","canvas-keyboard-response","370","573007","0.0-11.0-1.179","101","2022-3-10","15:5:4","1","19","[""White""]","No","Female","812530","","","","","","","","200","30","30","25","33","",""
"1127","8","rating","canvas-keyboard-response","371","574149","0.0-11.0-0.180","101","2022-3-10","15:5:4","1","19","[""White""]","No","Female","812530","","","","","","","","112","30","85","17","17","1",""
"null","null","clear_screen","canvas-keyboard-response","372","574407","0.0-11.0-1.180","101","2022-3-10","15:5:4","1","19","[""White""]","No","Female","812530","","","","","","","","112","30","85","17","17","",""
"1171","8","rating","canvas-keyboard-response","373","575589","0.0-11.0-0.181","101","2022-3-10","15:5:4","1","19","[""White""]","No","Female","812530","","","","","","","","2","30","85","10","10","0",""
"null","null","clear_screen","canvas-keyboard-response","374","575848","0.0-11.0-1.181","101","2022-3-10","15:5:4","1","19","[""White""]","No","Female","812530","","","","","","","","2","30","85","10","10","",""
"1115","6","rating","canvas-keyboard-response","375","576973","0.0-11.0-0.182","101","2022-3-10","15:5:4","1","19","[""White""]","No","Female","812530","","","","","","","","147","57","140","17","40","1",""
"null","null","clear_screen","canvas-keyboard-response","376","577235","0.0-11.0-1.182","101","2022-3-10","15:5:4","1","19","[""White""]","No","Female","812530","","","","","","","","147","57","140","17","40","",""
"944","8","rating","canvas-keyboard-response","377","578189","0.0-11.0-0.183","101","2022-3-10","15:5:4","1","19","[""White""]","No","Female","812530","","","","","","","","265","57","85","33","33","1",""
"null","null","clear_screen","canvas-keyboard-response","378","578449","0.0-11.0-1.183","101","2022-3-10","15:5:4","1","19","[""White""]","No","Female","812530","","","","","","","","265","57","85","33","33","",""
"1490","8","rating","canvas-keyboard-response","379","579950","0.0-11.0-0.184","101","2022-3-10","15:5:4","1","19","[""White""]","No","Female","812530","","","","","","","","248","140","85","25","33","1",""
"null","null","clear_screen","canvas-keyboard-response","380","580211","0.0-11.0-1.184","101","2022-3-10","15:5:4","1","19","[""White""]","No","Female","812530","","","","","","","","248","140","85","25","33","",""
"1077","8","rating","canvas-keyboard-response","381","581301","0.0-11.0-0.185","101","2022-3-10","15:5:4","1","19","[""White""]","No","Female","812530","","","","","","","","133","57","30","17","25","0",""
"null","null","clear_screen","canvas-keyboard-response","382","581560","0.0-11.0-1.185","101","2022-3-10","15:5:4","1","19","[""White""]","No","Female","812530","","","","","","","","133","57","30","17","25","",""
"1496","6","rating","canvas-keyboard-response","383","583070","0.0-11.0-0.186","101","2022-3-10","15:5:4","1","19","[""White""]","No","Female","812530","","","","","","","","99","140","113","10","25","1",""
"null","null","clear_screen","canvas-keyboard-response","384","583328","0.0-11.0-1.186","101","2022-3-10","15:5:4","1","19","[""White""]","No","Female","812530","","","","","","","","99","140","113","10","25","",""
"1026","8","rating","canvas-keyboard-response","385","584365","0.0-11.0-0.187","101","2022-3-10","15:5:4","1","19","[""White""]","No","Female","812530","","","","","","","","114","30","140","17","17","0",""
"null","null","clear_screen","canvas-keyboard-response","386","584625","0.0-11.0-1.187","101","2022-3-10","15:5:4","1","19","[""White""]","No","Female","812530","","","","","","","","114","30","140","17","17","",""
"1127","2","rating","canvas-keyboard-response","387","585765","0.0-11.0-0.188","101","2022-3-10","15:5:4","1","19","[""White""]","No","Female","812530","","","","","","","","191","140","30","17","40","1",""
"null","null","clear_screen","canvas-keyboard-response","388","586024","0.0-11.0-1.188","101","2022-3-10","15:5:4","1","19","[""White""]","No","Female","812530","","","","","","","","191","140","30","17","40","",""
"1131","8","rating","canvas-keyboard-response","389","587165","0.0-11.0-0.189","101","2022-3-10","15:5:4","1","19","[""White""]","No","Female","812530","","","","","","","","36","57","113","10","25","0",""
"null","null","clear_screen","canvas-keyboard-response","390","587425","0.0-11.0-1.189","101","2022-3-10","15:5:4","1","19","[""White""]","No","Female","812530","","","","","","","","36","57","113","10","25","",""
"1407","3","rating","canvas-keyboard-response","391","588845","0.0-11.0-0.190","101","2022-3-10","15:5:4","1","19","[""White""]","No","Female","812530","","","","","","","","53","85","113","10","17","1",""
"null","null","clear_screen","canvas-keyboard-response","392","589106","0.0-11.0-1.190","101","2022-3-10","15:5:4","1","19","[""White""]","No","Female","812530","","","","","","","","53","85","113","10","17","",""
"952","8","rating","canvas-keyboard-response","393","590069","0.0-11.0-0.191","101","2022-3-10","15:5:4","1","19","[""White""]","No","Female","812530","","","","","","","","32","57","140","10","17","0",""
"null","null","clear_screen","canvas-keyboard-response","394","590330","0.0-11.0-1.191","101","2022-3-10","15:5:4","1","19","[""White""]","No","Female","812530","","","","","","","","32","57","140","10","17","",""
"991","8","rating","canvas-keyboard-response","395","591333","0.0-11.0-0.192","101","2022-3-10","15:5:4","1","19","[""White""]","No","Female","812530","","","","","","","","5","30","30","10","17","0",""
"null","null","clear_screen","canvas-keyboard-response","396","591595","0.0-11.0-1.192","101","2022-3-10","15:5:4","1","19","[""White""]","No","Female","812530","","","","","","","","5","30","30","10","17","",""
"1627","6","rating","canvas-keyboard-response","397","593237","0.0-11.0-0.193","101","2022-3-10","15:5:4","1","19","[""White""]","No","Female","812530","","","","","","","","139","57","57","17","33","0",""
"null","null","clear_screen","canvas-keyboard-response","398","593495","0.0-11.0-1.193","101","2022-3-10","15:5:4","1","19","[""White""]","No","Female","812530","","","","","","","","139","57","57","17","33","",""
"1172","8","rating","canvas-keyboard-response","399","594678","0.0-11.0-0.194","101","2022-3-10","15:5:4","1","19","[""White""]","No","Female","812530","","","","","","","","184","140","113","17","25","0",""
"null","null","clear_screen","canvas-keyboard-response","400","594939","0.0-11.0-1.194","101","2022-3-10","15:5:4","1","19","[""White""]","No","Female","812530","","","","","","","","184","140","113","17","25","",""
"1420","2","rating","canvas-keyboard-response","401","596373","0.0-11.0-0.195","101","2022-3-10","15:5:4","1","19","[""White""]","No","Female","812530","","","","","","","","58","85","113","10","25","1",""
"null","null","clear_screen","canvas-keyboard-response","402","596632","0.0-11.0-1.195","101","2022-3-10","15:5:4","1","19","[""White""]","No","Female","812530","","","","","","","","58","85","113","10","25","",""
"1488","8","rating","canvas-keyboard-response","403","598135","0.0-11.0-0.196","101","2022-3-10","15:5:4","1","19","[""White""]","No","Female","812530","","","","","","","","241","113","30","25","40","0",""
"null","null","clear_screen","canvas-keyboard-response","404","598397","0.0-11.0-1.196","101","2022-3-10","15:5:4","1","19","[""White""]","No","Female","812530","","","","","","","","241","113","30","25","40","",""
"1098","8","rating","canvas-keyboard-response","405","599508","0.0-11.0-0.197","101","2022-3-10","15:5:4","1","19","[""White""]","No","Female","812530","","","","","","","","4","30","140","10","10","0",""
"null","null","clear_screen","canvas-keyboard-response","406","599763","0.0-11.0-1.197","101","2022-3-10","15:5:4","1","19","[""White""]","No","Female","812530","","","","","","","","4","30","140","10","10","",""
"1807","5","rating","canvas-keyboard-response","407","601581","0.0-11.0-0.198","101","2022-3-10","15:5:4","1","19","[""White""]","No","Female","812530","","","","","","","","9","30","140","10","17","0",""
"null","null","clear_screen","canvas-keyboard-response","408","601842","0.0-11.0-1.198","101","2022-3-10","15:5:4","1","19","[""White""]","No","Female","812530","","","","","","","","9","30","140","10","17","",""
"5134","6","rating","canvas-keyboard-response","409","606989","0.0-11.0-0.199","101","2022-3-10","15:5:4","1","19","[""White""]","No","Female","812530","","","","","","","","97","140","57","10","25","1",""
"null","null","clear_screen","canvas-keyboard-response","410","607249","0.0-11.0-1.199","101","2022-3-10","15:5:4","1","19","[""White""]","No","Female","812530","","","","","","","","97","140","57","10","25","",""
"1296","8","rating","canvas-keyboard-response","411","608558","0.0-11.0-0.200","101","2022-3-10","15:5:4","1","19","[""White""]","No","Female","812530","","","","","","","","291","30","57","40","40","1",""
"null","null","clear_screen","canvas-keyboard-response","412","608819","0.0-11.0-1.200","101","2022-3-10","15:5:4","1","19","[""White""]","No","Female","812530","","","","","","","","291","30","57","40","40","",""
"1134","5","rating","canvas-keyboard-response","413","609966","0.0-11.0-0.201","101","2022-3-10","15:5:4","1","19","[""White""]","No","Female","812530","","","","","","","","150","85","30","17","25","0",""
"null","null","clear_screen","canvas-keyboard-response","414","610228","0.0-11.0-1.201","101","2022-3-10","15:5:4","1","19","[""White""]","No","Female","812530","","","","","","","","150","85","30","17","25","",""
"3679","5","rating","canvas-keyboard-response","415","613917","0.0-11.0-0.202","101","2022-3-10","15:5:4","1","19","[""White""]","No","Female","812530","","","","","","","","63","85","113","10","33","1",""
"null","null","clear_screen","canvas-keyboard-response","416","614179","0.0-11.0-1.202","101","2022-3-10","15:5:4","1","19","[""White""]","No","Female","812530","","","","","","","","63","85","113","10","33","",""
"1251","8","rating","canvas-keyboard-response","417","615446","0.0-11.0-0.203","101","2022-3-10","15:5:4","1","19","[""White""]","No","Female","812530","","","","","","","","29","57","57","10","17","1",""
"null","null","clear_screen","canvas-keyboard-response","418","615708","0.0-11.0-1.203","101","2022-3-10","15:5:4","1","19","[""White""]","No","Female","812530","","","","","","","","29","57","57","10","17","",""
"1183","7","rating","canvas-keyboard-response","419","616902","0.0-11.0-0.204","101","2022-3-10","15:5:4","1","19","[""White""]","No","Female","812530","","","","","","","","117","30","85","17","25","1",""
"null","null","clear_screen","canvas-keyboard-response","420","617163","0.0-11.0-1.204","101","2022-3-10","15:5:4","1","19","[""White""]","No","Female","812530","","","","","","","","117","30","85","17","25","",""
"1711","4","rating","canvas-keyboard-response","421","618885","0.0-11.0-0.205","101","2022-3-10","15:5:4","1","19","[""White""]","No","Female","812530","","","","","","","","44","57","57","10","40","0",""
"null","null","clear_screen","canvas-keyboard-response","422","619147","0.0-11.0-1.205","101","2022-3-10","15:5:4","1","19","[""White""]","No","Female","812530","","","","","","","","44","57","57","10","40","",""
"1524","4","rating","canvas-keyboard-response","423","620685","0.0-11.0-0.206","101","2022-3-10","15:5:4","1","19","[""White""]","No","Female","812530","","","","","","","","61","85","57","10","33","0",""
"null","null","clear_screen","canvas-keyboard-response","424","620946","0.0-11.0-1.206","101","2022-3-10","15:5:4","1","19","[""White""]","No","Female","812530","","","","","","","","61","85","57","10","33","",""
"1608","7","rating","canvas-keyboard-response","425","622565","0.0-11.0-0.207","101","2022-3-10","15:5:4","1","19","[""White""]","No","Female","812530","","","","","","","","214","57","57","25","33","1",""
"null","null","clear_screen","canvas-keyboard-response","426","622824","0.0-11.0-1.207","101","2022-3-10","15:5:4","1","19","[""White""]","No","Female","812530","","","","","","","","214","57","57","25","33","",""
"1085","5","rating","canvas-keyboard-response","427","623917","0.0-11.0-0.208","101","2022-3-10","15:5:4","1","19","[""White""]","No","Female","812530","","","","","","","","137","57","140","17","25","0",""
"null","null","clear_screen","canvas-keyboard-response","428","624180","0.0-11.0-1.208","101","2022-3-10","15:5:4","1","19","[""White""]","No","Female","812530","","","","","","","","137","57","140","17","25","",""
"1311","3","rating","canvas-keyboard-response","429","625502","0.0-11.0-0.209","101","2022-3-10","15:5:4","1","19","[""White""]","No","Female","812530","","","","","","","","157","85","85","17","33","0",""
"null","null","clear_screen","canvas-keyboard-response","430","625759","0.0-11.0-1.209","101","2022-3-10","15:5:4","1","19","[""White""]","No","Female","812530","","","","","","","","157","85","85","17","33","",""
"2458","7","rating","canvas-keyboard-response","431","628229","0.0-11.0-0.210","101","2022-3-10","15:5:4","1","19","[""White""]","No","Female","812530","","","","","","","","100","140","140","10","25","1",""
"null","null","clear_screen","canvas-keyboard-response","432","628491","0.0-11.0-1.210","101","2022-3-10","15:5:4","1","19","[""White""]","No","Female","812530","","","","","","","","100","140","140","10","25","",""
"980","7","rating","canvas-keyboard-response","433","629485","0.0-11.0-0.211","101","2022-3-10","15:5:4","1","19","[""White""]","No","Female","812530","","","","","","","","166","113","30","17","25","0",""
"null","null","clear_screen","canvas-keyboard-response","434","629745","0.0-11.0-1.211","101","2022-3-10","15:5:4","1","19","[""White""]","No","Female","812530","","","","","","","","166","113","30","17","25","",""
"2053","2","rating","canvas-keyboard-response","435","631814","0.0-11.0-0.212","101","2022-3-10","15:5:4","1","19","[""White""]","No","Female","812530","","","","","","","","106","140","30","10","40","0",""
"null","null","clear_screen","canvas-keyboard-response","436","632074","0.0-11.0-1.212","101","2022-3-10","15:5:4","1","19","[""White""]","No","Female","812530","","","","","","","","106","140","30","10","40","",""
"1125","2","rating","canvas-keyboard-response","437","633213","0.0-11.0-0.213","101","2022-3-10","15:5:4","1","19","[""White""]","No","Female","812530","","","","","","","","18","30","113","10","33","0",""
"null","null","clear_screen","canvas-keyboard-response","438","633473","0.0-11.0-1.213","101","2022-3-10","15:5:4","1","19","[""White""]","No","Female","812530","","","","","","","","18","30","113","10","33","",""
"1464","3","rating","canvas-keyboard-response","439","634950","0.0-11.0-0.214","101","2022-3-10","15:5:4","1","19","[""White""]","No","Female","812530","","","","","","","","174","113","113","17","33","1",""
"null","null","clear_screen","canvas-keyboard-response","440","635210","0.0-11.0-1.214","101","2022-3-10","15:5:4","1","19","[""White""]","No","Female","812530","","","","","","","","174","113","113","17","33","",""
"1639","8","rating","canvas-keyboard-response","441","636862","0.0-11.0-0.215","101","2022-3-10","15:5:4","1","19","[""White""]","No","Female","812530","","","","","","","","129","30","140","17","40","0",""
"null","null","clear_screen","canvas-keyboard-response","442","637119","0.0-11.0-1.215","101","2022-3-10","15:5:4","1","19","[""White""]","No","Female","812530","","","","","","","","129","30","140","17","40","",""
"2143","8","rating","canvas-keyboard-response","443","639278","0.0-11.0-0.216","101","2022-3-10","15:5:4","1","19","[""White""]","No","Female","812530","","","","","","","","279","85","140","33","40","0",""
"null","null","clear_screen","canvas-keyboard-response","444","639536","0.0-11.0-1.216","101","2022-3-10","15:5:4","1","19","[""White""]","No","Female","812530","","","","","","","","279","85","140","33","40","",""
"1514","6","rating","canvas-keyboard-response","445","641061","0.0-11.0-0.217","101","2022-3-10","15:5:4","1","19","[""White""]","No","Female","812530","","","","","","","","84","113","113","10","33","1",""
"null","null","clear_screen","canvas-keyboard-response","446","641321","0.0-11.0-1.217","101","2022-3-10","15:5:4","1","19","[""White""]","No","Female","812530","","","","","","","","84","113","113","10","33","",""
"2586","2","rating","canvas-keyboard-response","447","643917","0.0-11.0-0.218","101","2022-3-10","15:5:4","1","19","[""White""]","No","Female","812530","","","","","","","","37","57","140","10","25","1",""
"null","null","clear_screen","canvas-keyboard-response","448","644177","0.0-11.0-1.218","101","2022-3-10","15:5:4","1","19","[""White""]","No","Female","812530","","","","","","","","37","57","140","10","25","",""
"1391","2","rating","canvas-keyboard-response","449","645581","0.0-11.0-0.219","101","2022-3-10","15:5:4","1","19","[""White""]","No","Female","812530","","","","","","","","178","113","85","17","40","0",""
"null","null","clear_screen","canvas-keyboard-response","450","645842","0.0-11.0-1.219","101","2022-3-10","15:5:4","1","19","[""White""]","No","Female","812530","","","","","","","","178","113","85","17","40","",""
"838","2","rating","canvas-keyboard-response","451","646693","0.0-11.0-0.220","101","2022-3-10","15:5:4","1","19","[""White""]","No","Female","812530","","","","","","","","43","57","30","10","40","0",""
"null","null","clear_screen","canvas-keyboard-response","452","646951","0.0-11.0-1.220","101","2022-3-10","15:5:4","1","19","[""White""]","No","Female","812530","","","","","","","","43","57","30","10","40","",""
"1059","2","rating","canvas-keyboard-response","453","648021","0.0-11.0-0.221","101","2022-3-10","15:5:4","1","19","[""White""]","No","Female","812530","","","","","","","","107","140","57","10","40","1",""
"null","null","clear_screen","canvas-keyboard-response","454","648281","0.0-11.0-1.221","101","2022-3-10","15:5:4","1","19","[""White""]","No","Female","812530","","","","","","","","107","140","57","10","40","",""
"1897","8","rating","canvas-keyboard-response","455","650190","0.0-11.0-0.222","101","2022-3-10","15:5:4","1","19","[""White""]","No","Female","812530","","","","","","","","159","85","140","17","33","0",""
"null","null","clear_screen","canvas-keyboard-response","456","650448","0.0-11.0-1.222","101","2022-3-10","15:5:4","1","19","[""White""]","No","Female","812530","","","","","","","","159","85","140","17","33","",""
"1210","2","rating","canvas-keyboard-response","457","651669","0.0-11.0-0.223","101","2022-3-10","15:5:4","1","19","[""White""]","No","Female","812530","","","","","","","","70","113","140","10","10","1",""
"null","null","clear_screen","canvas-keyboard-response","458","651928","0.0-11.0-1.223","101","2022-3-10","15:5:4","1","19","[""White""]","No","Female","812530","","","","","","","","70","113","140","10","10","",""
"1512","9","rating","canvas-keyboard-response","459","653453","0.0-11.0-0.224","101","2022-3-10","15:5:4","1","19","[""White""]","No","Female","812530","","","","","","","","260","30","30","33","40","1",""
"0","8","clear_screen","canvas-keyboard-response","460","653462","0.0-11.0-1.224","101","2022-3-10","15:5:4","1","19","[""White""]","No","Female","812530","","","","","","","","260","30","30","33","40","",""
"1442","8","rating","canvas-keyboard-response","461","654909","0.0-11.0-0.225","101","2022-3-10","15:5:4","1","19","[""White""]","No","Female","812530","","","","","","","","11","30","57","10","25","0",""
"null","null","clear_screen","canvas-keyboard-response","462","655169","0.0-11.0-1.225","101","2022-3-10","15:5:4","1","19","[""White""]","No","Female","812530","","","","","","","","11","30","57","10","25","",""
"1064","7","rating","canvas-keyboard-response","463","656245","0.0-11.0-0.226","101","2022-3-10","15:5:4","1","19","[""White""]","No","Female","812530","","","","","","","","20","30","30","10","40","0",""
"null","null","clear_screen","canvas-keyboard-response","464","656504","0.0-11.0-1.226","101","2022-3-10","15:5:4","1","19","[""White""]","No","Female","812530","","","","","","","","20","30","30","10","40","",""
"1680","9","rating","canvas-keyboard-response","465","658197","0.0-11.0-0.227","101","2022-3-10","15:5:4","1","19","[""White""]","No","Female","812530","","","","","","","","169","113","113","17","25","0",""
"null","null","clear_screen","canvas-keyboard-response","466","658454","0.0-11.0-1.227","101","2022-3-10","15:5:4","1","19","[""White""]","No","Female","812530","","","","","","","","169","113","113","17","25","",""
"939","8","rating","canvas-keyboard-response","467","659406","0.0-11.0-0.228","101","2022-3-10","15:5:4","1","19","[""White""]","No","Female","812530","","","","","","","","33","57","30","10","25","0",""
"null","null","clear_screen","canvas-keyboard-response","468","659667","0.0-11.0-1.228","101","2022-3-10","15:5:4","1","19","[""White""]","No","Female","812530","","","","","","","","33","57","30","10","25","",""
"1948","5","rating","canvas-keyboard-response","469","661631","0.0-11.0-0.229","101","2022-3-10","15:5:4","1","19","[""White""]","No","Female","812530","","","","","","","","222","57","140","25","40","1",""
