"rt","response","trialType","trial_type","trial_index","time_elapsed","internal_node_id","sub_n","date","time","leftRight","age","race","ethnicity","gender","exp_duration","success","timeout","failed_images","failed_audio","failed_video","stimulus","view_history","trialID","radius_a","radius_b","angle_a","angle_b","lrCond","question_order"
"2840","{""response"":""102""}","enter-sub-number","survey-html-form","0","2873","0.0-0.0","102","2022-3-11","14:0:8","1","20","[""Asian""]","No","Female","1109294","","","","","","","","","","","","","",""
"","","","fullscreen","1","9129","0.0-1.0","102","2022-3-11","14:0:8","1","20","[""Asian""]","No","Female","1109294","true","","","","","","","","","","","","",""
"","","","preload","2","9150","0.0-2.0","102","2022-3-11","14:0:8","1","20","[""Asian""]","No","Female","1109294","true","false","[]","[]","[]","","","","","","","","",""
"28384","0","","html-button-response","3","37536","0.0-3.0","102","2022-3-11","14:0:8","1","20","[""Asian""]","No","Female","1109294","","","","","","<div style= ""font-size:25px;"" <p> <strong> Welcome to the experiment! </strong><br> <p style=""color:#8B0000; font-size:25px;""><strong> Please do NOT exit full screen until you are done with the experiment. </strong> </p><p style=""font-size:25px;color:#8B0000;""> <strong> The experiment will be canceled and your data will be lost <br> if you try to go back or refresh the page at any point during the experiment.</strong> </p><br><p> <strong> Thanks in advance for your contribution to our research! </strong></p>","","","","","","","",""
"31434","","","instructions","4","68975","0.0-4.0","102","2022-3-11","14:0:8","1","20","[""Asian""]","No","Female","1109294","","","","","","","[{""page_index"":0,""viewing_time"":13835},{""page_index"":1,""viewing_time"":9943},{""page_index"":2,""viewing_time"":7656}]","","","","","","",""
"null","null","presentPop","canvas-keyboard-response","5","84991","0.0-5.0","102","2022-3-11","14:0:8","1","20","[""Asian""]","No","Female","1109294","","","","","","","","","","","","","",""
"null","null","clear_screen","canvas-keyboard-response","6","85752","0.0-6.0","102","2022-3-11","14:0:8","1","20","[""Asian""]","No","Female","1109294","","","","","","","","","","","","","",""
"4140","","","instructions","7","89895","0.0-7.0","102","2022-3-11","14:0:8","1","20","[""Asian""]","No","Female","1109294","","","","","","","[{""page_index"":0,""viewing_time"":4140}]","","","","","","",""
"null","null","presentPop","canvas-keyboard-response","8","105909","0.0-8.0","102","2022-3-11","14:0:8","1","20","[""Asian""]","No","Female","1109294","","","","","","","","","","","","","",""
"null","null","clear_screen","canvas-keyboard-response","9","106668","0.0-9.0","102","2022-3-11","14:0:8","1","20","[""Asian""]","No","Female","1109294","","","","","","","","","","","","","",""
"10067","","","instructions","10","116736","0.0-10.0","102","2022-3-11","14:0:8","1","20","[""Asian""]","No","Female","1109294","","","","","","","[{""page_index"":0,""viewing_time"":3362},{""page_index"":1,""viewing_time"":6705}]","","","","","","",""
"11505","7","rating","canvas-keyboard-response","11","129255","0.0-11.0-0.0","102","2022-3-11","14:0:8","1","20","[""Asian""]","No","Female","1109294","","","","","","","","58","85","113","10","25","1",""
"null","null","clear_screen","canvas-keyboard-response","12","129515","0.0-11.0-1.0","102","2022-3-11","14:0:8","1","20","[""Asian""]","No","Female","1109294","","","","","","","","58","85","113","10","25","",""
"9475","6","rating","canvas-keyboard-response","13","139000","0.0-11.0-0.1","102","2022-3-11","14:0:8","1","20","[""Asian""]","No","Female","1109294","","","","","","","","99","140","113","10","25","1",""
"null","null","clear_screen","canvas-keyboard-response","14","139258","0.0-11.0-1.1","102","2022-3-11","14:0:8","1","20","[""Asian""]","No","Female","1109294","","","","","","","","99","140","113","10","25","",""
"2955","2","rating","canvas-keyboard-response","15","142224","0.0-11.0-0.2","102","2022-3-11","14:0:8","1","20","[""Asian""]","No","Female","1109294","","","","","","","","122","30","85","17","33","0",""
"null","null","clear_screen","canvas-keyboard-response","16","142484","0.0-11.0-1.2","102","2022-3-11","14:0:8","1","20","[""Asian""]","No","Female","1109294","","","","","","","","122","30","85","17","33","",""
"5159","6","rating","canvas-keyboard-response","17","147657","0.0-11.0-0.3","102","2022-3-11","14:0:8","1","20","[""Asian""]","No","Female","1109294","","","","","","","","85","113","140","10","33","0",""
"null","null","clear_screen","canvas-keyboard-response","18","147917","0.0-11.0-1.3","102","2022-3-11","14:0:8","1","20","[""Asian""]","No","Female","1109294","","","","","","","","85","113","140","10","33","",""
"4710","6","rating","canvas-keyboard-response","19","152640","0.0-11.0-0.4","102","2022-3-11","14:0:8","1","20","[""Asian""]","No","Female","1109294","","","","","","","","90","113","140","10","40","1",""
"null","null","clear_screen","canvas-keyboard-response","20","152899","0.0-11.0-1.4","102","2022-3-11","14:0:8","1","20","[""Asian""]","No","Female","1109294","","","","","","","","90","113","140","10","40","",""
"2186","1","rating","canvas-keyboard-response","21","155095","0.0-11.0-0.5","102","2022-3-11","14:0:8","1","20","[""Asian""]","No","Female","1109294","","","","","","","","66","85","57","10","40","0",""
"null","null","clear_screen","canvas-keyboard-response","22","155354","0.0-11.0-1.5","102","2022-3-11","14:0:8","1","20","[""Asian""]","No","Female","1109294","","","","","","","","66","85","57","10","40","",""
"6370","5","rating","canvas-keyboard-response","23","161736","0.0-11.0-0.6","102","2022-3-11","14:0:8","1","20","[""Asian""]","No","Female","1109294","","","","","","","","121","30","57","17","33","0",""
"null","null","clear_screen","canvas-keyboard-response","24","161994","0.0-11.0-1.6","102","2022-3-11","14:0:8","1","20","[""Asian""]","No","Female","1109294","","","","","","","","121","30","57","17","33","",""
"3467","9","rating","canvas-keyboard-response","25","165472","0.0-11.0-0.7","102","2022-3-11","14:0:8","1","20","[""Asian""]","No","Female","1109294","","","","","","","","300","113","140","40","40","0",""
"null","null","clear_screen","canvas-keyboard-response","26","165731","0.0-11.0-1.7","102","2022-3-11","14:0:8","1","20","[""Asian""]","No","Female","1109294","","","","","","","","300","113","140","40","40","",""
"3586","3","rating","canvas-keyboard-response","27","169327","0.0-11.0-0.8","102","2022-3-11","14:0:8","1","20","[""Asian""]","No","Female","1109294","","","","","","","","143","57","30","17","40","0",""
"null","null","clear_screen","canvas-keyboard-response","28","169586","0.0-11.0-1.8","102","2022-3-11","14:0:8","1","20","[""Asian""]","No","Female","1109294","","","","","","","","143","57","30","17","40","",""
"2612","9","rating","canvas-keyboard-response","29","172207","0.0-11.0-0.9","102","2022-3-11","14:0:8","1","20","[""Asian""]","No","Female","1109294","","","","","","","","94","140","113","10","17","0",""
"null","null","clear_screen","canvas-keyboard-response","30","172466","0.0-11.0-1.9","102","2022-3-11","14:0:8","1","20","[""Asian""]","No","Female","1109294","","","","","","","","94","140","113","10","17","",""
"1854","8","rating","canvas-keyboard-response","31","174337","0.0-11.0-0.10","102","2022-3-11","14:0:8","1","20","[""Asian""]","No","Female","1109294","","","","","","","","228","85","113","25","33","1",""
"null","null","clear_screen","canvas-keyboard-response","32","174595","0.0-11.0-1.10","102","2022-3-11","14:0:8","1","20","[""Asian""]","No","Female","1109294","","","","","","","","228","85","113","25","33","",""
"6938","3","rating","canvas-keyboard-response","33","181543","0.0-11.0-0.11","102","2022-3-11","14:0:8","1","20","[""Asian""]","No","Female","1109294","","","","","","","","3","30","113","10","10","1",""
"null","null","clear_screen","canvas-keyboard-response","34","181801","0.0-11.0-1.11","102","2022-3-11","14:0:8","1","20","[""Asian""]","No","Female","1109294","","","","","","","","3","30","113","10","10","",""
"8157","3","rating","canvas-keyboard-response","35","189967","0.0-11.0-0.12","102","2022-3-11","14:0:8","1","20","[""Asian""]","No","Female","1109294","","","","","","","","125","30","30","17","40","0",""
"null","null","clear_screen","canvas-keyboard-response","36","190226","0.0-11.0-1.12","102","2022-3-11","14:0:8","1","20","[""Asian""]","No","Female","1109294","","","","","","","","125","30","30","17","40","",""
"3021","6","rating","canvas-keyboard-response","37","193255","0.0-11.0-0.13","102","2022-3-11","14:0:8","1","20","[""Asian""]","No","Female","1109294","","","","","","","","159","85","140","17","33","0",""
"null","null","clear_screen","canvas-keyboard-response","38","193512","0.0-11.0-1.13","102","2022-3-11","14:0:8","1","20","[""Asian""]","No","Female","1109294","","","","","","","","159","85","140","17","33","",""
"2957","9","rating","canvas-keyboard-response","39","196479","0.0-11.0-0.14","102","2022-3-11","14:0:8","1","20","[""Asian""]","No","Female","1109294","","","","","","","","235","113","140","25","25","0",""
"null","null","clear_screen","canvas-keyboard-response","40","196738","0.0-11.0-1.14","102","2022-3-11","14:0:8","1","20","[""Asian""]","No","Female","1109294","","","","","","","","235","113","140","25","25","",""
"2436","8","rating","canvas-keyboard-response","41","199183","0.0-11.0-0.15","102","2022-3-11","14:0:8","1","20","[""Asian""]","No","Female","1109294","","","","","","","","10","30","30","10","25","1",""
"null","null","clear_screen","canvas-keyboard-response","42","199441","0.0-11.0-1.15","102","2022-3-11","14:0:8","1","20","[""Asian""]","No","Female","1109294","","","","","","","","10","30","30","10","25","",""
"4029","5","rating","canvas-keyboard-response","43","203480","0.0-11.0-0.16","102","2022-3-11","14:0:8","1","20","[""Asian""]","No","Female","1109294","","","","","","","","259","30","140","33","33","0",""
"null","null","clear_screen","canvas-keyboard-response","44","203741","0.0-11.0-1.16","102","2022-3-11","14:0:8","1","20","[""Asian""]","No","Female","1109294","","","","","","","","259","30","140","33","33","",""
"2870","1","rating","canvas-keyboard-response","45","206623","0.0-11.0-0.17","102","2022-3-11","14:0:8","1","20","[""Asian""]","No","Female","1109294","","","","","","","","107","140","57","10","40","1",""
"null","null","clear_screen","canvas-keyboard-response","46","206882","0.0-11.0-1.17","102","2022-3-11","14:0:8","1","20","[""Asian""]","No","Female","1109294","","","","","","","","107","140","57","10","40","",""
"4522","6","rating","canvas-keyboard-response","47","211416","0.0-11.0-0.18","102","2022-3-11","14:0:8","1","20","[""Asian""]","No","Female","1109294","","","","","","","","137","57","140","17","25","1",""
"null","null","clear_screen","canvas-keyboard-response","48","211674","0.0-11.0-1.18","102","2022-3-11","14:0:8","1","20","[""Asian""]","No","Female","1109294","","","","","","","","137","57","140","17","25","",""
"1387","6","rating","canvas-keyboard-response","49","213071","0.0-11.0-0.19","102","2022-3-11","14:0:8","1","20","[""Asian""]","No","Female","1109294","","","","","","","","268","57","30","33","40","0",""
"null","null","clear_screen","canvas-keyboard-response","50","213331","0.0-11.0-1.19","102","2022-3-11","14:0:8","1","20","[""Asian""]","No","Female","1109294","","","","","","","","268","57","30","33","40","",""
"3033","3","rating","canvas-keyboard-response","51","216375","0.0-11.0-0.20","102","2022-3-11","14:0:8","1","20","[""Asian""]","No","Female","1109294","","","","","","","","16","30","57","10","33","0",""
"null","null","clear_screen","canvas-keyboard-response","52","216634","0.0-11.0-1.20","102","2022-3-11","14:0:8","1","20","[""Asian""]","No","Female","1109294","","","","","","","","16","30","57","10","33","",""
"2740","3","rating","canvas-keyboard-response","53","219383","0.0-11.0-0.21","102","2022-3-11","14:0:8","1","20","[""Asian""]","No","Female","1109294","","","","","","","","2","30","85","10","10","0",""
"null","null","clear_screen","canvas-keyboard-response","54","219642","0.0-11.0-1.21","102","2022-3-11","14:0:8","1","20","[""Asian""]","No","Female","1109294","","","","","","","","2","30","85","10","10","",""
"1785","8","rating","canvas-keyboard-response","55","221439","0.0-11.0-0.22","102","2022-3-11","14:0:8","1","20","[""Asian""]","No","Female","1109294","","","","","","","","239","113","113","25","33","0",""
"null","null","clear_screen","canvas-keyboard-response","56","221698","0.0-11.0-1.22","102","2022-3-11","14:0:8","1","20","[""Asian""]","No","Female","1109294","","","","","","","","239","113","113","25","33","",""
"4043","7","rating","canvas-keyboard-response","57","225751","0.0-11.0-0.23","102","2022-3-11","14:0:8","1","20","[""Asian""]","No","Female","1109294","","","","","","","","221","57","113","25","40","1",""
"null","null","clear_screen","canvas-keyboard-response","58","226009","0.0-11.0-1.23","102","2022-3-11","14:0:8","1","20","[""Asian""]","No","Female","1109294","","","","","","","","221","57","113","25","40","",""
"2948","3","rating","canvas-keyboard-response","59","228968","0.0-11.0-0.24","102","2022-3-11","14:0:8","1","20","[""Asian""]","No","Female","1109294","","","","","","","","119","30","140","17","25","1",""
"null","null","clear_screen","canvas-keyboard-response","60","229225","0.0-11.0-1.24","102","2022-3-11","14:0:8","1","20","[""Asian""]","No","Female","1109294","","","","","","","","119","30","140","17","25","",""
"3860","2","rating","canvas-keyboard-response","61","233095","0.0-11.0-0.25","102","2022-3-11","14:0:8","1","20","[""Asian""]","No","Female","1109294","","","","","","","","33","57","30","10","25","1",""
"null","null","clear_screen","canvas-keyboard-response","62","233353","0.0-11.0-1.25","102","2022-3-11","14:0:8","1","20","[""Asian""]","No","Female","1109294","","","","","","","","33","57","30","10","25","",""
"2583","4","rating","canvas-keyboard-response","63","235952","0.0-11.0-0.26","102","2022-3-11","14:0:8","1","20","[""Asian""]","No","Female","1109294","","","","","","","","183","140","85","17","25","0",""
"null","null","clear_screen","canvas-keyboard-response","64","236209","0.0-11.0-1.26","102","2022-3-11","14:0:8","1","20","[""Asian""]","No","Female","1109294","","","","","","","","183","140","85","17","25","",""
"5442","3","rating","canvas-keyboard-response","65","241662","0.0-11.0-0.27","102","2022-3-11","14:0:8","1","20","[""Asian""]","No","Female","1109294","","","","","","","","209","30","140","25","40","1",""
"null","null","clear_screen","canvas-keyboard-response","66","241921","0.0-11.0-1.27","102","2022-3-11","14:0:8","1","20","[""Asian""]","No","Female","1109294","","","","","","","","209","30","140","25","40","",""
"1580","9","rating","canvas-keyboard-response","67","243510","0.0-11.0-0.28","102","2022-3-11","14:0:8","1","20","[""Asian""]","No","Female","1109294","","","","","","","","185","140","140","17","25","0",""
"null","null","clear_screen","canvas-keyboard-response","68","243769","0.0-11.0-1.28","102","2022-3-11","14:0:8","1","20","[""Asian""]","No","Female","1109294","","","","","","","","185","140","140","17","25","",""
"1885","7","rating","canvas-keyboard-response","69","245663","0.0-11.0-0.29","102","2022-3-11","14:0:8","1","20","[""Asian""]","No","Female","1109294","","","","","","","","274","85","140","33","33","1",""
"null","null","clear_screen","canvas-keyboard-response","70","245921","0.0-11.0-1.29","102","2022-3-11","14:0:8","1","20","[""Asian""]","No","Female","1109294","","","","","","","","274","85","140","33","33","",""
"1907","7","rating","canvas-keyboard-response","71","247839","0.0-11.0-0.30","102","2022-3-11","14:0:8","1","20","[""Asian""]","No","Female","1109294","","","","","","","","100","140","140","10","25","1",""
"null","null","clear_screen","canvas-keyboard-response","72","248097","0.0-11.0-1.30","102","2022-3-11","14:0:8","1","20","[""Asian""]","No","Female","1109294","","","","","","","","100","140","140","10","25","",""
"7141","6","rating","canvas-keyboard-response","73","255247","0.0-11.0-0.31","102","2022-3-11","14:0:8","1","20","[""Asian""]","No","Female","1109294","","","","","","","","20","30","30","10","40","0",""
"null","null","clear_screen","canvas-keyboard-response","74","255505","0.0-11.0-1.31","102","2022-3-11","14:0:8","1","20","[""Asian""]","No","Female","1109294","","","","","","","","20","30","30","10","40","",""
"3324","4","rating","canvas-keyboard-response","75","258839","0.0-11.0-0.32","102","2022-3-11","14:0:8","1","20","[""Asian""]","No","Female","1109294","","","","","","","","61","85","57","10","33","0",""
"null","null","clear_screen","canvas-keyboard-response","76","259097","0.0-11.0-1.32","102","2022-3-11","14:0:8","1","20","[""Asian""]","No","Female","1109294","","","","","","","","61","85","57","10","33","",""
"1333","1","rating","canvas-keyboard-response","77","260439","0.0-11.0-0.33","102","2022-3-11","14:0:8","1","20","[""Asian""]","No","Female","1109294","","","","","","","","18","30","113","10","33","0",""
"null","null","clear_screen","canvas-keyboard-response","78","260697","0.0-11.0-1.33","102","2022-3-11","14:0:8","1","20","[""Asian""]","No","Female","1109294","","","","","","","","18","30","113","10","33","",""
"1681","4","rating","canvas-keyboard-response","79","262391","0.0-11.0-0.34","102","2022-3-11","14:0:8","1","20","[""Asian""]","No","Female","1109294","","","","","","","","260","30","30","33","40","1",""
"null","null","clear_screen","canvas-keyboard-response","80","262649","0.0-11.0-1.34","102","2022-3-11","14:0:8","1","20","[""Asian""]","No","Female","1109294","","","","","","","","260","30","30","33","40","",""
"3021","4","rating","canvas-keyboard-response","81","265679","0.0-11.0-0.35","102","2022-3-11","14:0:8","1","20","[""Asian""]","No","Female","1109294","","","","","","","","108","140","85","10","40","1",""
"null","null","clear_screen","canvas-keyboard-response","82","265937","0.0-11.0-1.35","102","2022-3-11","14:0:8","1","20","[""Asian""]","No","Female","1109294","","","","","","","","108","140","85","10","40","",""
"6332","6","rating","canvas-keyboard-response","83","272280","0.0-11.0-0.36","102","2022-3-11","14:0:8","1","20","[""Asian""]","No","Female","1109294","","","","","","","","178","113","85","17","40","0",""
"null","null","clear_screen","canvas-keyboard-response","84","272541","0.0-11.0-1.36","102","2022-3-11","14:0:8","1","20","[""Asian""]","No","Female","1109294","","","","","","","","178","113","85","17","40","",""
"1989","1","rating","canvas-keyboard-response","85","274542","0.0-11.0-0.37","102","2022-3-11","14:0:8","1","20","[""Asian""]","No","Female","1109294","","","","","","","","23","30","113","10","40","0",""
"null","null","clear_screen","canvas-keyboard-response","86","274802","0.0-11.0-1.37","102","2022-3-11","14:0:8","1","20","[""Asian""]","No","Female","1109294","","","","","","","","23","30","113","10","40","",""
"3291","3","rating","canvas-keyboard-response","87","278103","0.0-11.0-0.38","102","2022-3-11","14:0:8","1","20","[""Asian""]","No","Female","1109294","","","","","","","","55","85","30","10","25","0",""
"null","null","clear_screen","canvas-keyboard-response","88","278362","0.0-11.0-1.38","102","2022-3-11","14:0:8","1","20","[""Asian""]","No","Female","1109294","","","","","","","","55","85","30","10","25","",""
"4090","9","rating","canvas-keyboard-response","89","282463","0.0-11.0-0.39","102","2022-3-11","14:0:8","1","20","[""Asian""]","No","Female","1109294","","","","","","","","215","57","85","25","33","1",""
"null","null","clear_screen","canvas-keyboard-response","90","282722","0.0-11.0-1.39","102","2022-3-11","14:0:8","1","20","[""Asian""]","No","Female","1109294","","","","","","","","215","57","85","25","33","",""
"3612","6","rating","canvas-keyboard-response","91","286343","0.0-11.0-0.40","102","2022-3-11","14:0:8","1","20","[""Asian""]","No","Female","1109294","","","","","","","","68","85","113","10","40","0",""
"null","null","clear_screen","canvas-keyboard-response","92","286601","0.0-11.0-1.40","102","2022-3-11","14:0:8","1","20","[""Asian""]","No","Female","1109294","","","","","","","","68","85","113","10","40","",""
"3002","1","rating","canvas-keyboard-response","93","289615","0.0-11.0-0.41","102","2022-3-11","14:0:8","1","20","[""Asian""]","No","Female","1109294","","","","","","","","176","113","30","17","40","1",""
"null","null","clear_screen","canvas-keyboard-response","94","289873","0.0-11.0-1.41","102","2022-3-11","14:0:8","1","20","[""Asian""]","No","Female","1109294","","","","","","","","176","113","30","17","40","",""
"2219","9","rating","canvas-keyboard-response","95","292103","0.0-11.0-0.42","102","2022-3-11","14:0:8","1","20","[""Asian""]","No","Female","1109294","","","","","","","","227","85","85","25","33","1",""
"null","null","clear_screen","canvas-keyboard-response","96","292362","0.0-11.0-1.42","102","2022-3-11","14:0:8","1","20","[""Asian""]","No","Female","1109294","","","","","","","","227","85","85","25","33","",""
"1787","7","rating","canvas-keyboard-response","97","294159","0.0-11.0-0.43","102","2022-3-11","14:0:8","1","20","[""Asian""]","No","Female","1109294","","","","","","","","188","140","85","17","33","1",""
"null","null","clear_screen","canvas-keyboard-response","98","294417","0.0-11.0-1.43","102","2022-3-11","14:0:8","1","20","[""Asian""]","No","Female","1109294","","","","","","","","188","140","85","17","33","",""
"3131","4","rating","canvas-keyboard-response","99","297558","0.0-11.0-0.44","102","2022-3-11","14:0:8","1","20","[""Asian""]","No","Female","1109294","","","","","","","","12","30","85","10","25","0",""
"null","null","clear_screen","canvas-keyboard-response","100","297817","0.0-11.0-1.44","102","2022-3-11","14:0:8","1","20","[""Asian""]","No","Female","1109294","","","","","","","","12","30","85","10","25","",""
"2892","7","rating","canvas-keyboard-response","101","300718","0.0-11.0-0.45","102","2022-3-11","14:0:8","1","20","[""Asian""]","No","Female","1109294","","","","","","","","154","85","140","17","25","1",""
"null","null","clear_screen","canvas-keyboard-response","102","300977","0.0-11.0-1.45","102","2022-3-11","14:0:8","1","20","[""Asian""]","No","Female","1109294","","","","","","","","154","85","140","17","25","",""
"3918","7","rating","canvas-keyboard-response","103","304911","0.0-11.0-0.46","102","2022-3-11","14:0:8","1","20","[""Asian""]","No","Female","1109294","","","","","","","","295","57","85","40","40","1",""
"null","null","clear_screen","canvas-keyboard-response","104","305169","0.0-11.0-1.46","102","2022-3-11","14:0:8","1","20","[""Asian""]","No","Female","1109294","","","","","","","","295","57","85","40","40","",""
"2418","8","rating","canvas-keyboard-response","105","307599","0.0-11.0-0.47","102","2022-3-11","14:0:8","1","20","[""Asian""]","No","Female","1109294","","","","","","","","273","85","113","33","33","1",""
"null","null","clear_screen","canvas-keyboard-response","106","307857","0.0-11.0-1.47","102","2022-3-11","14:0:8","1","20","[""Asian""]","No","Female","1109294","","","","","","","","273","85","113","33","33","",""
"5403","6","rating","canvas-keyboard-response","107","313270","0.0-11.0-0.48","102","2022-3-11","14:0:8","1","20","[""Asian""]","No","Female","1109294","","","","","","","","225","85","30","25","33","0",""
"null","null","clear_screen","canvas-keyboard-response","108","313529","0.0-11.0-1.48","102","2022-3-11","14:0:8","1","20","[""Asian""]","No","Female","1109294","","","","","","","","225","85","30","25","33","",""
"7476","3","rating","canvas-keyboard-response","109","321014","0.0-11.0-0.49","102","2022-3-11","14:0:8","1","20","[""Asian""]","No","Female","1109294","","","","","","","","241","113","30","25","40","0",""
"null","null","clear_screen","canvas-keyboard-response","110","321272","0.0-11.0-1.49","102","2022-3-11","14:0:8","1","20","[""Asian""]","No","Female","1109294","","","","","","","","241","113","30","25","40","",""
"1668","9","rating","canvas-keyboard-response","111","322950","0.0-11.0-0.50","102","2022-3-11","14:0:8","1","20","[""Asian""]","No","Female","1109294","","","","","","","","70","113","140","10","10","1",""
"null","null","clear_screen","canvas-keyboard-response","112","323208","0.0-11.0-1.50","102","2022-3-11","14:0:8","1","20","[""Asian""]","No","Female","1109294","","","","","","","","70","113","140","10","10","",""
"2612","1","rating","canvas-keyboard-response","113","325831","0.0-11.0-0.51","102","2022-3-11","14:0:8","1","20","[""Asian""]","No","Female","1109294","","","","","","","","192","140","57","17","40","1",""
"null","null","clear_screen","canvas-keyboard-response","114","326089","0.0-11.0-1.51","102","2022-3-11","14:0:8","1","20","[""Asian""]","No","Female","1109294","","","","","","","","192","140","57","17","40","",""
"4988","3","rating","canvas-keyboard-response","115","331086","0.0-11.0-0.52","102","2022-3-11","14:0:8","1","20","[""Asian""]","No","Female","1109294","","","","","","","","186","140","30","17","33","0",""
"null","null","clear_screen","canvas-keyboard-response","116","331345","0.0-11.0-1.52","102","2022-3-11","14:0:8","1","20","[""Asian""]","No","Female","1109294","","","","","","","","186","140","30","17","33","",""
"2418","2","rating","canvas-keyboard-response","117","333774","0.0-11.0-0.53","102","2022-3-11","14:0:8","1","20","[""Asian""]","No","Female","1109294","","","","","","","","81","113","30","10","33","0",""
"null","null","clear_screen","canvas-keyboard-response","118","334032","0.0-11.0-1.53","102","2022-3-11","14:0:8","1","20","[""Asian""]","No","Female","1109294","","","","","","","","81","113","30","10","33","",""
"3068","5","rating","canvas-keyboard-response","119","337111","0.0-11.0-0.54","102","2022-3-11","14:0:8","1","20","[""Asian""]","No","Female","1109294","","","","","","","","217","57","140","25","33","1",""
"null","null","clear_screen","canvas-keyboard-response","120","337372","0.0-11.0-1.54","102","2022-3-11","14:0:8","1","20","[""Asian""]","No","Female","1109294","","","","","","","","217","57","140","25","33","",""
"5726","4","rating","canvas-keyboard-response","121","343110","0.0-11.0-0.55","102","2022-3-11","14:0:8","1","20","[""Asian""]","No","Female","1109294","","","","","","","","167","113","57","17","25","1",""
"null","null","clear_screen","canvas-keyboard-response","122","343370","0.0-11.0-1.55","102","2022-3-11","14:0:8","1","20","[""Asian""]","No","Female","1109294","","","","","","","","167","113","57","17","25","",""
"3272","5","rating","canvas-keyboard-response","123","346655","0.0-11.0-0.56","102","2022-3-11","14:0:8","1","20","[""Asian""]","No","Female","1109294","","","","","","","","257","30","85","33","33","0",""
"null","null","clear_screen","canvas-keyboard-response","124","346914","0.0-11.0-1.56","102","2022-3-11","14:0:8","1","20","[""Asian""]","No","Female","1109294","","","","","","","","257","30","85","33","33","",""
"2978","6","rating","canvas-keyboard-response","125","349903","0.0-11.0-0.57","102","2022-3-11","14:0:8","1","20","[""Asian""]","No","Female","1109294","","","","","","","","26","57","113","10","10","0",""
"null","null","clear_screen","canvas-keyboard-response","126","350161","0.0-11.0-1.57","102","2022-3-11","14:0:8","1","20","[""Asian""]","No","Female","1109294","","","","","","","","26","57","113","10","10","",""
"3572","6","rating","canvas-keyboard-response","127","353743","0.0-11.0-0.58","102","2022-3-11","14:0:8","1","20","[""Asian""]","No","Female","1109294","","","","","","","","148","85","113","17","17","0",""
"null","null","clear_screen","canvas-keyboard-response","128","354005","0.0-11.0-1.58","102","2022-3-11","14:0:8","1","20","[""Asian""]","No","Female","1109294","","","","","","","","148","85","113","17","17","",""
"3798","5","rating","canvas-keyboard-response","129","357815","0.0-11.0-0.59","102","2022-3-11","14:0:8","1","20","[""Asian""]","No","Female","1109294","","","","","","","","286","140","30","33","40","1",""
"null","null","clear_screen","canvas-keyboard-response","130","358075","0.0-11.0-1.59","102","2022-3-11","14:0:8","1","20","[""Asian""]","No","Female","1109294","","","","","","","","286","140","30","33","40","",""
"4761","4","rating","canvas-keyboard-response","131","362846","0.0-11.0-0.60","102","2022-3-11","14:0:8","1","20","[""Asian""]","No","Female","1109294","","","","","","","","173","113","85","17","33","0",""
"null","null","clear_screen","canvas-keyboard-response","132","363105","0.0-11.0-1.60","102","2022-3-11","14:0:8","1","20","[""Asian""]","No","Female","1109294","","","","","","","","173","113","85","17","33","",""
"2932","3","rating","canvas-keyboard-response","133","366046","0.0-11.0-0.61","102","2022-3-11","14:0:8","1","20","[""Asian""]","No","Female","1109294","","","","","","","","181","140","30","17","25","0",""
"null","null","clear_screen","canvas-keyboard-response","134","366306","0.0-11.0-1.61","102","2022-3-11","14:0:8","1","20","[""Asian""]","No","Female","1109294","","","","","","","","181","140","30","17","25","",""
"1978","4","rating","canvas-keyboard-response","135","368295","0.0-11.0-0.62","102","2022-3-11","14:0:8","1","20","[""Asian""]","No","Female","1109294","","","","","","","","31","57","113","10","17","0",""
"null","null","clear_screen","canvas-keyboard-response","136","368553","0.0-11.0-1.62","102","2022-3-11","14:0:8","1","20","[""Asian""]","No","Female","1109294","","","","","","","","31","57","113","10","17","",""
"2156","4","rating","canvas-keyboard-response","137","370718","0.0-11.0-0.63","102","2022-3-11","14:0:8","1","20","[""Asian""]","No","Female","1109294","","","","","","","","136","57","113","17","25","1",""
"null","null","clear_screen","canvas-keyboard-response","138","370976","0.0-11.0-1.63","102","2022-3-11","14:0:8","1","20","[""Asian""]","No","Female","1109294","","","","","","","","136","57","113","17","25","",""
"2195","5","rating","canvas-keyboard-response","139","373183","0.0-11.0-0.64","102","2022-3-11","14:0:8","1","20","[""Asian""]","No","Female","1109294","","","","","","","","182","140","57","17","25","0",""
"null","null","clear_screen","canvas-keyboard-response","140","373441","0.0-11.0-1.64","102","2022-3-11","14:0:8","1","20","[""Asian""]","No","Female","1109294","","","","","","","","182","140","57","17","25","",""
"2753","4","rating","canvas-keyboard-response","141","376207","0.0-11.0-0.65","102","2022-3-11","14:0:8","1","20","[""Asian""]","No","Female","1109294","","","","","","","","258","30","113","33","33","1",""
"null","null","clear_screen","canvas-keyboard-response","142","376467","0.0-11.0-1.65","102","2022-3-11","14:0:8","1","20","[""Asian""]","No","Female","1109294","","","","","","","","258","30","113","33","33","",""
"3751","7","rating","canvas-keyboard-response","143","380230","0.0-11.0-0.66","102","2022-3-11","14:0:8","1","20","[""Asian""]","No","Female","1109294","","","","","","","","139","57","57","17","33","0",""
"null","null","clear_screen","canvas-keyboard-response","144","380490","0.0-11.0-1.66","102","2022-3-11","14:0:8","1","20","[""Asian""]","No","Female","1109294","","","","","","","","139","57","57","17","33","",""
"5329","2","rating","canvas-keyboard-response","145","385831","0.0-11.0-0.67","102","2022-3-11","14:0:8","1","20","[""Asian""]","No","Female","1109294","","","","","","","","21","30","57","10","40","0",""
"null","null","clear_screen","canvas-keyboard-response","146","386088","0.0-11.0-1.67","102","2022-3-11","14:0:8","1","20","[""Asian""]","No","Female","1109294","","","","","","","","21","30","57","10","40","",""
"2706","4","rating","canvas-keyboard-response","147","388807","0.0-11.0-0.68","102","2022-3-11","14:0:8","1","20","[""Asian""]","No","Female","1109294","","","","","","","","37","57","140","10","25","1",""
"null","null","clear_screen","canvas-keyboard-response","148","389064","0.0-11.0-1.68","102","2022-3-11","14:0:8","1","20","[""Asian""]","No","Female","1109294","","","","","","","","37","57","140","10","25","",""
"10099","6","rating","canvas-keyboard-response","149","399175","0.0-11.0-0.69","102","2022-3-11","14:0:8","1","20","[""Asian""]","No","Female","1109294","","","","","","","","35","57","85","10","25","0",""
"null","null","clear_screen","canvas-keyboard-response","150","399433","0.0-11.0-1.69","102","2022-3-11","14:0:8","1","20","[""Asian""]","No","Female","1109294","","","","","","","","35","57","85","10","25","",""
"1891","1","rating","canvas-keyboard-response","151","401334","0.0-11.0-0.70","102","2022-3-11","14:0:8","1","20","[""Asian""]","No","Female","1109294","","","","","","","","97","140","57","10","25","0",""
"null","null","clear_screen","canvas-keyboard-response","152","401594","0.0-11.0-1.70","102","2022-3-11","14:0:8","1","20","[""Asian""]","No","Female","1109294","","","","","","","","97","140","57","10","25","",""
"1681","3","rating","canvas-keyboard-response","153","403286","0.0-11.0-0.71","102","2022-3-11","14:0:8","1","20","[""Asian""]","No","Female","1109294","","","","","","","","140","57","85","17","33","1",""
"null","null","clear_screen","canvas-keyboard-response","154","403544","0.0-11.0-1.71","102","2022-3-11","14:0:8","1","20","[""Asian""]","No","Female","1109294","","","","","","","","140","57","85","17","33","",""
"8620","6","rating","canvas-keyboard-response","155","412173","0.0-11.0-0.72","102","2022-3-11","14:0:8","1","20","[""Asian""]","No","Female","1109294","","","","","","","","162","85","85","17","40","0",""
"null","null","clear_screen","canvas-keyboard-response","156","412432","0.0-11.0-1.72","102","2022-3-11","14:0:8","1","20","[""Asian""]","No","Female","1109294","","","","","","","","162","85","85","17","40","",""
"1659","6","rating","canvas-keyboard-response","157","414103","0.0-11.0-0.73","102","2022-3-11","14:0:8","1","20","[""Asian""]","No","Female","1109294","","","","","","","","131","57","113","17","17","0",""
"null","null","clear_screen","canvas-keyboard-response","158","414363","0.0-11.0-1.73","102","2022-3-11","14:0:8","1","20","[""Asian""]","No","Female","1109294","","","","","","","","131","57","113","17","17","",""
"2437","2","rating","canvas-keyboard-response","159","416813","0.0-11.0-0.74","102","2022-3-11","14:0:8","1","20","[""Asian""]","No","Female","1109294","","","","","","","","230","85","30","25","40","0",""
"null","null","clear_screen","canvas-keyboard-response","160","417073","0.0-11.0-1.74","102","2022-3-11","14:0:8","1","20","[""Asian""]","No","Female","1109294","","","","","","","","230","85","30","25","40","",""
"2465","5","rating","canvas-keyboard-response","161","419550","0.0-11.0-0.75","102","2022-3-11","14:0:8","1","20","[""Asian""]","No","Female","1109294","","","","","","","","92","140","57","10","17","0",""
"null","null","clear_screen","canvas-keyboard-response","162","419814","0.0-11.0-1.75","102","2022-3-11","14:0:8","1","20","[""Asian""]","No","Female","1109294","","","","","","","","92","140","57","10","17","",""
"2765","5","rating","canvas-keyboard-response","163","422590","0.0-11.0-0.76","102","2022-3-11","14:0:8","1","20","[""Asian""]","No","Female","1109294","","","","","","","","292","30","85","40","40","0",""
"null","null","clear_screen","canvas-keyboard-response","164","422849","0.0-11.0-1.76","102","2022-3-11","14:0:8","1","20","[""Asian""]","No","Female","1109294","","","","","","","","292","30","85","40","40","",""
"3307","4","rating","canvas-keyboard-response","165","426166","0.0-11.0-0.77","102","2022-3-11","14:0:8","1","20","[""Asian""]","No","Female","1109294","","","","","","","","147","57","140","17","40","1",""
"null","null","clear_screen","canvas-keyboard-response","166","426424","0.0-11.0-1.77","102","2022-3-11","14:0:8","1","20","[""Asian""]","No","Female","1109294","","","","","","","","147","57","140","17","40","",""
"4668","3","rating","canvas-keyboard-response","167","431102","0.0-11.0-0.78","102","2022-3-11","14:0:8","1","20","[""Asian""]","No","Female","1109294","","","","","","","","71","113","30","10","17","1",""
"null","null","clear_screen","canvas-keyboard-response","168","431361","0.0-11.0-1.78","102","2022-3-11","14:0:8","1","20","[""Asian""]","No","Female","1109294","","","","","","","","71","113","30","10","17","",""
"2425","6","rating","canvas-keyboard-response","169","433797","0.0-11.0-0.79","102","2022-3-11","14:0:8","1","20","[""Asian""]","No","Female","1109294","","","","","","","","151","85","57","17","25","1",""
"null","null","clear_screen","canvas-keyboard-response","170","434056","0.0-11.0-1.79","102","2022-3-11","14:0:8","1","20","[""Asian""]","No","Female","1109294","","","","","","","","151","85","57","17","25","",""
"2427","9","rating","canvas-keyboard-response","171","436493","0.0-11.0-0.80","102","2022-3-11","14:0:8","1","20","[""Asian""]","No","Female","1109294","","","","","","","","289","140","113","33","40","0",""
"null","null","clear_screen","canvas-keyboard-response","172","436753","0.0-11.0-1.80","102","2022-3-11","14:0:8","1","20","[""Asian""]","No","Female","1109294","","","","","","","","289","140","113","33","40","",""
"2107","7","rating","canvas-keyboard-response","173","438870","0.0-11.0-0.81","102","2022-3-11","14:0:8","1","20","[""Asian""]","No","Female","1109294","","","","","","","","79","113","113","10","25","0",""
"null","null","clear_screen","canvas-keyboard-response","174","439128","0.0-11.0-1.81","102","2022-3-11","14:0:8","1","20","[""Asian""]","No","Female","1109294","","","","","","","","79","113","113","10","25","",""
"5587","4","rating","canvas-keyboard-response","175","444725","0.0-11.0-0.82","102","2022-3-11","14:0:8","1","20","[""Asian""]","No","Female","1109294","","","","","","","","82","113","57","10","33","0",""
"null","null","clear_screen","canvas-keyboard-response","176","444984","0.0-11.0-1.82","102","2022-3-11","14:0:8","1","20","[""Asian""]","No","Female","1109294","","","","","","","","82","113","57","10","33","",""
"1544","4","rating","canvas-keyboard-response","177","446542","0.0-11.0-0.83","102","2022-3-11","14:0:8","1","20","[""Asian""]","No","Female","1109294","","","","","","","","47","57","140","10","40","0",""
"null","null","clear_screen","canvas-keyboard-response","178","446800","0.0-11.0-1.83","102","2022-3-11","14:0:8","1","20","[""Asian""]","No","Female","1109294","","","","","","","","47","57","140","10","40","",""
"3699","3","rating","canvas-keyboard-response","179","450509","0.0-11.0-0.84","102","2022-3-11","14:0:8","1","20","[""Asian""]","No","Female","1109294","","","","","","","","208","30","113","25","40","1",""
"null","null","clear_screen","canvas-keyboard-response","180","450767","0.0-11.0-1.84","102","2022-3-11","14:0:8","1","20","[""Asian""]","No","Female","1109294","","","","","","","","208","30","113","25","40","",""
"5556","1","rating","canvas-keyboard-response","181","456333","0.0-11.0-0.85","102","2022-3-11","14:0:8","1","20","[""Asian""]","No","Female","1109294","","","","","","","","76","113","30","10","25","0",""
"null","null","clear_screen","canvas-keyboard-response","182","456592","0.0-11.0-1.85","102","2022-3-11","14:0:8","1","20","[""Asian""]","No","Female","1109294","","","","","","","","76","113","30","10","25","",""
"1900","7","rating","canvas-keyboard-response","183","458502","0.0-11.0-0.86","102","2022-3-11","14:0:8","1","20","[""Asian""]","No","Female","1109294","","","","","","","","190","140","140","17","33","1",""
"null","null","clear_screen","canvas-keyboard-response","184","458759","0.0-11.0-1.86","102","2022-3-11","14:0:8","1","20","[""Asian""]","No","Female","1109294","","","","","","","","190","140","140","17","33","",""
"3003","6","rating","canvas-keyboard-response","185","461773","0.0-11.0-0.87","102","2022-3-11","14:0:8","1","20","[""Asian""]","No","Female","1109294","","","","","","","","118","30","113","17","25","1",""
"null","null","clear_screen","canvas-keyboard-response","186","462031","0.0-11.0-1.87","102","2022-3-11","14:0:8","1","20","[""Asian""]","No","Female","1109294","","","","","","","","118","30","113","17","25","",""
"2019","4","rating","canvas-keyboard-response","187","464061","0.0-11.0-0.88","102","2022-3-11","14:0:8","1","20","[""Asian""]","No","Female","1109294","","","","","","","","231","85","57","25","40","1",""
"null","null","clear_screen","canvas-keyboard-response","188","464320","0.0-11.0-1.88","102","2022-3-11","14:0:8","1","20","[""Asian""]","No","Female","1109294","","","","","","","","231","85","57","25","40","",""
"3971","6","rating","canvas-keyboard-response","189","468301","0.0-11.0-0.89","102","2022-3-11","14:0:8","1","20","[""Asian""]","No","Female","1109294","","","","","","","","11","30","57","10","25","0",""
"null","null","clear_screen","canvas-keyboard-response","190","468559","0.0-11.0-1.89","102","2022-3-11","14:0:8","1","20","[""Asian""]","No","Female","1109294","","","","","","","","11","30","57","10","25","",""
"3268","3","rating","canvas-keyboard-response","191","471837","0.0-11.0-0.90","102","2022-3-11","14:0:8","1","20","[""Asian""]","No","Female","1109294","","","","","","","","246","140","30","25","33","0",""
"null","null","clear_screen","canvas-keyboard-response","192","472095","0.0-11.0-1.90","102","2022-3-11","14:0:8","1","20","[""Asian""]","No","Female","1109294","","","","","","","","246","140","30","25","33","",""
"2545","9","rating","canvas-keyboard-response","193","474653","0.0-11.0-0.91","102","2022-3-11","14:0:8","1","20","[""Asian""]","No","Female","1109294","","","","","","","","298","85","113","40","40","1",""
"null","null","clear_screen","canvas-keyboard-response","194","474911","0.0-11.0-1.91","102","2022-3-11","14:0:8","1","20","[""Asian""]","No","Female","1109294","","","","","","","","298","85","113","40","40","",""
"2140","4","rating","canvas-keyboard-response","195","477061","0.0-11.0-0.92","102","2022-3-11","14:0:8","1","20","[""Asian""]","No","Female","1109294","","","","","","","","161","85","57","17","40","1",""
"null","null","clear_screen","canvas-keyboard-response","196","477319","0.0-11.0-1.92","102","2022-3-11","14:0:8","1","20","[""Asian""]","No","Female","1109294","","","","","","","","161","85","57","17","40","",""
"1956","9","rating","canvas-keyboard-response","197","479285","0.0-11.0-0.93","102","2022-3-11","14:0:8","1","20","[""Asian""]","No","Female","1109294","","","","","","","","1","30","57","10","10","1",""
"null","null","clear_screen","canvas-keyboard-response","198","479543","0.0-11.0-1.93","102","2022-3-11","14:0:8","1","20","[""Asian""]","No","Female","1109294","","","","","","","","1","30","57","10","10","",""
"1276","8","rating","canvas-keyboard-response","199","480830","0.0-11.0-0.94","102","2022-3-11","14:0:8","1","20","[""Asian""]","No","Female","1109294","","","","","","","","283","113","85","33","40","0",""
"null","null","clear_screen","canvas-keyboard-response","200","481092","0.0-11.0-1.94","102","2022-3-11","14:0:8","1","20","[""Asian""]","No","Female","1109294","","","","","","","","283","113","85","33","40","",""
"1916","6","rating","canvas-keyboard-response","201","483022","0.0-11.0-0.95","102","2022-3-11","14:0:8","1","20","[""Asian""]","No","Female","1109294","","","","","","","","84","113","113","10","33","1",""
"null","null","clear_screen","canvas-keyboard-response","202","483281","0.0-11.0-1.95","102","2022-3-11","14:0:8","1","20","[""Asian""]","No","Female","1109294","","","","","","","","84","113","113","10","33","",""
"1896","7","rating","canvas-keyboard-response","203","485189","0.0-11.0-0.96","102","2022-3-11","14:0:8","1","20","[""Asian""]","No","Female","1109294","","","","","","","","189","140","113","17","33","1",""
"null","null","clear_screen","canvas-keyboard-response","204","485448","0.0-11.0-1.96","102","2022-3-11","14:0:8","1","20","[""Asian""]","No","Female","1109294","","","","","","","","189","140","113","17","33","",""
"1460","8","rating","canvas-keyboard-response","205","486918","0.0-11.0-0.97","102","2022-3-11","14:0:8","1","20","[""Asian""]","No","Female","1109294","","","","","","","","74","113","113","10","17","0",""
"null","null","clear_screen","canvas-keyboard-response","206","487175","0.0-11.0-1.97","102","2022-3-11","14:0:8","1","20","[""Asian""]","No","Female","1109294","","","","","","","","74","113","113","10","17","",""
"3507","8","rating","canvas-keyboard-response","207","490693","0.0-11.0-0.98","102","2022-3-11","14:0:8","1","20","[""Asian""]","No","Female","1109294","","","","","","","","213","57","30","25","33","1",""
"null","null","clear_screen","canvas-keyboard-response","208","490951","0.0-11.0-1.98","102","2022-3-11","14:0:8","1","20","[""Asian""]","No","Female","1109294","","","","","","","","213","57","30","25","33","",""
"1708","8","rating","canvas-keyboard-response","209","492670","0.0-11.0-0.99","102","2022-3-11","14:0:8","1","20","[""Asian""]","No","Female","1109294","","","","","","","","28","57","30","10","17","0",""
"null","null","clear_screen","canvas-keyboard-response","210","492930","0.0-11.0-1.99","102","2022-3-11","14:0:8","1","20","[""Asian""]","No","Female","1109294","","","","","","","","28","57","30","10","17","",""
"2881","9","rating","canvas-keyboard-response","211","495821","0.0-11.0-0.100","102","2022-3-11","14:0:8","1","20","[""Asian""]","No","Female","1109294","","","","","","","","59","85","140","10","25","0",""
"null","null","clear_screen","canvas-keyboard-response","212","496080","0.0-11.0-1.100","102","2022-3-11","14:0:8","1","20","[""Asian""]","No","Female","1109294","","","","","","","","59","85","140","10","25","",""
"2834","7","rating","canvas-keyboard-response","213","498926","0.0-11.0-0.101","102","2022-3-11","14:0:8","1","20","[""Asian""]","No","Female","1109294","","","","","","","","83","113","85","10","33","0",""
"null","null","clear_screen","canvas-keyboard-response","214","499183","0.0-11.0-1.101","102","2022-3-11","14:0:8","1","20","[""Asian""]","No","Female","1109294","","","","","","","","83","113","85","10","33","",""
"1811","2","rating","canvas-keyboard-response","215","501006","0.0-11.0-0.102","102","2022-3-11","14:0:8","1","20","[""Asian""]","No","Female","1109294","","","","","","","","199","30","140","25","25","0",""
"null","null","clear_screen","canvas-keyboard-response","216","501264","0.0-11.0-1.102","102","2022-3-11","14:0:8","1","20","[""Asian""]","No","Female","1109294","","","","","","","","199","30","140","25","25","",""
"3292","6","rating","canvas-keyboard-response","217","504565","0.0-11.0-0.103","102","2022-3-11","14:0:8","1","20","[""Asian""]","No","Female","1109294","","","","","","","","17","30","85","10","33","1",""
"null","null","clear_screen","canvas-keyboard-response","218","504827","0.0-11.0-1.103","102","2022-3-11","14:0:8","1","20","[""Asian""]","No","Female","1109294","","","","","","","","17","30","85","10","33","",""
"1784","4","rating","canvas-keyboard-response","219","506622","0.0-11.0-0.104","102","2022-3-11","14:0:8","1","20","[""Asian""]","No","Female","1109294","","","","","","","","67","85","85","10","40","0",""
"null","null","clear_screen","canvas-keyboard-response","220","506880","0.0-11.0-1.104","102","2022-3-11","14:0:8","1","20","[""Asian""]","No","Female","1109294","","","","","","","","67","85","85","10","40","",""
"4322","3","rating","canvas-keyboard-response","221","511213","0.0-11.0-0.105","102","2022-3-11","14:0:8","1","20","[""Asian""]","No","Female","1109294","","","","","","","","179","113","113","17","40","1",""
"null","null","clear_screen","canvas-keyboard-response","222","511471","0.0-11.0-1.105","102","2022-3-11","14:0:8","1","20","[""Asian""]","No","Female","1109294","","","","","","","","179","113","113","17","40","",""
"2436","3","rating","canvas-keyboard-response","223","513918","0.0-11.0-0.106","102","2022-3-11","14:0:8","1","20","[""Asian""]","No","Female","1109294","","","","","","","","207","30","85","25","40","1",""
"null","null","clear_screen","canvas-keyboard-response","224","514175","0.0-11.0-1.106","102","2022-3-11","14:0:8","1","20","[""Asian""]","No","Female","1109294","","","","","","","","207","30","85","25","40","",""
"2156","6","rating","canvas-keyboard-response","225","516341","0.0-11.0-0.107","102","2022-3-11","14:0:8","1","20","[""Asian""]","No","Female","1109294","","","","","","","","93","140","85","10","17","0",""
"null","null","clear_screen","canvas-keyboard-response","226","516599","0.0-11.0-1.107","102","2022-3-11","14:0:8","1","20","[""Asian""]","No","Female","1109294","","","","","","","","93","140","85","10","17","",""
"2901","5","rating","canvas-keyboard-response","227","519509","0.0-11.0-0.108","102","2022-3-11","14:0:8","1","20","[""Asian""]","No","Female","1109294","","","","","","","","39","57","57","10","33","1",""
"null","null","clear_screen","canvas-keyboard-response","228","519768","0.0-11.0-1.108","102","2022-3-11","14:0:8","1","20","[""Asian""]","No","Female","1109294","","","","","","","","39","57","57","10","33","",""
"3788","3","rating","canvas-keyboard-response","229","523565","0.0-11.0-0.109","102","2022-3-11","14:0:8","1","20","[""Asian""]","No","Female","1109294","","","","","","","","236","113","30","25","33","1",""
"null","null","clear_screen","canvas-keyboard-response","230","523824","0.0-11.0-1.109","102","2022-3-11","14:0:8","1","20","[""Asian""]","No","Female","1109294","","","","","","","","236","113","30","25","33","",""
"1827","9","rating","canvas-keyboard-response","231","525661","0.0-11.0-0.110","102","2022-3-11","14:0:8","1","20","[""Asian""]","No","Female","1109294","","","","","","","","52","85","85","10","17","0",""
"null","null","clear_screen","canvas-keyboard-response","232","525920","0.0-11.0-1.110","102","2022-3-11","14:0:8","1","20","[""Asian""]","No","Female","1109294","","","","","","","","52","85","85","10","17","",""
"2156","7","rating","canvas-keyboard-response","233","528085","0.0-11.0-0.111","102","2022-3-11","14:0:8","1","20","[""Asian""]","No","Female","1109294","","","","","","","","211","57","113","25","25","1",""
"null","null","clear_screen","canvas-keyboard-response","234","528343","0.0-11.0-1.111","102","2022-3-11","14:0:8","1","20","[""Asian""]","No","Female","1109294","","","","","","","","211","57","113","25","25","",""
"1949","4","rating","canvas-keyboard-response","235","530302","0.0-11.0-0.112","102","2022-3-11","14:0:8","1","20","[""Asian""]","No","Female","1109294","","","","","","","","15","30","30","10","33","1",""
"null","null","clear_screen","canvas-keyboard-response","236","530559","0.0-11.0-1.112","102","2022-3-11","14:0:8","1","20","[""Asian""]","No","Female","1109294","","","","","","","","15","30","30","10","33","",""
"5296","1","rating","canvas-keyboard-response","237","535869","0.0-11.0-0.113","102","2022-3-11","14:0:8","1","20","[""Asian""]","No","Female","1109294","","","","","","","","65","85","30","10","40","1",""
"null","null","clear_screen","canvas-keyboard-response","238","536128","0.0-11.0-1.113","102","2022-3-11","14:0:8","1","20","[""Asian""]","No","Female","1109294","","","","","","","","65","85","30","10","40","",""
"2444","2","rating","canvas-keyboard-response","239","538581","0.0-11.0-0.114","102","2022-3-11","14:0:8","1","20","[""Asian""]","No","Female","1109294","","","","","","","","198","30","113","25","25","0",""
"null","null","clear_screen","canvas-keyboard-response","240","538839","0.0-11.0-1.114","102","2022-3-11","14:0:8","1","20","[""Asian""]","No","Female","1109294","","","","","","","","198","30","113","25","25","",""
"3084","7","rating","canvas-keyboard-response","241","541933","0.0-11.0-0.115","102","2022-3-11","14:0:8","1","20","[""Asian""]","No","Female","1109294","","","","","","","","133","57","30","17","25","1",""
"null","null","clear_screen","canvas-keyboard-response","242","542191","0.0-11.0-1.115","102","2022-3-11","14:0:8","1","20","[""Asian""]","No","Female","1109294","","","","","","","","133","57","30","17","25","",""
"1636","8","rating","canvas-keyboard-response","243","543837","0.0-11.0-0.116","102","2022-3-11","14:0:8","1","20","[""Asian""]","No","Female","1109294","","","","","","","","111","30","57","17","17","1",""
"null","null","clear_screen","canvas-keyboard-response","244","544099","0.0-11.0-1.116","102","2022-3-11","14:0:8","1","20","[""Asian""]","No","Female","1109294","","","","","","","","111","30","57","17","17","",""
"2301","7","rating","canvas-keyboard-response","245","546413","0.0-11.0-0.117","102","2022-3-11","14:0:8","1","20","[""Asian""]","No","Female","1109294","","","","","","","","105","140","140","10","33","1",""
"null","null","clear_screen","canvas-keyboard-response","246","546673","0.0-11.0-1.117","102","2022-3-11","14:0:8","1","20","[""Asian""]","No","Female","1109294","","","","","","","","105","140","140","10","33","",""
"3121","5","rating","canvas-keyboard-response","247","549805","0.0-11.0-0.118","102","2022-3-11","14:0:8","1","20","[""Asian""]","No","Female","1109294","","","","","","","","150","85","30","17","25","0",""
"null","null","clear_screen","canvas-keyboard-response","248","550064","0.0-11.0-1.118","102","2022-3-11","14:0:8","1","20","[""Asian""]","No","Female","1109294","","","","","","","","150","85","30","17","25","",""
"5075","4","rating","canvas-keyboard-response","249","555149","0.0-11.0-0.119","102","2022-3-11","14:0:8","1","20","[""Asian""]","No","Female","1109294","","","","","","","","89","113","113","10","40","0",""
"null","null","clear_screen","canvas-keyboard-response","250","555408","0.0-11.0-1.119","102","2022-3-11","14:0:8","1","20","[""Asian""]","No","Female","1109294","","","","","","","","89","113","113","10","40","",""
"1922","8","rating","canvas-keyboard-response","251","557340","0.0-11.0-0.120","102","2022-3-11","14:0:8","1","20","[""Asian""]","No","Female","1109294","","","","","","","","245","113","140","25","40","0",""
"null","null","clear_screen","canvas-keyboard-response","252","557599","0.0-11.0-1.120","102","2022-3-11","14:0:8","1","20","[""Asian""]","No","Female","1109294","","","","","","","","245","113","140","25","40","",""
"2595","7","rating","canvas-keyboard-response","253","560205","0.0-11.0-0.121","102","2022-3-11","14:0:8","1","20","[""Asian""]","No","Female","1109294","","","","","","","","184","140","113","17","25","1",""
"null","null","clear_screen","canvas-keyboard-response","254","560464","0.0-11.0-1.121","102","2022-3-11","14:0:8","1","20","[""Asian""]","No","Female","1109294","","","","","","","","184","140","113","17","25","",""
"4481","4","rating","canvas-keyboard-response","255","564957","0.0-11.0-0.122","102","2022-3-11","14:0:8","1","20","[""Asian""]","No","Female","1109294","","","","","","","","50","85","30","10","17","1",""
"null","null","clear_screen","canvas-keyboard-response","256","565214","0.0-11.0-1.122","102","2022-3-11","14:0:8","1","20","[""Asian""]","No","Female","1109294","","","","","","","","50","85","30","10","17","",""
"1933","2","rating","canvas-keyboard-response","257","567157","0.0-11.0-0.123","102","2022-3-11","14:0:8","1","20","[""Asian""]","No","Female","1109294","","","","","","","","166","113","30","17","25","0",""
"null","null","clear_screen","canvas-keyboard-response","258","567416","0.0-11.0-1.123","102","2022-3-11","14:0:8","1","20","[""Asian""]","No","Female","1109294","","","","","","","","166","113","30","17","25","",""
"2684","7","rating","canvas-keyboard-response","259","570109","0.0-11.0-0.124","102","2022-3-11","14:0:8","1","20","[""Asian""]","No","Female","1109294","","","","","","","","120","30","30","17","33","1",""
"null","null","clear_screen","canvas-keyboard-response","260","570368","0.0-11.0-1.124","102","2022-3-11","14:0:8","1","20","[""Asian""]","No","Female","1109294","","","","","","","","120","30","30","17","33","",""
"1612","8","rating","canvas-keyboard-response","261","571989","0.0-11.0-0.125","102","2022-3-11","14:0:8","1","20","[""Asian""]","No","Female","1109294","","","","","","","","152","85","85","17","25","1",""
"null","null","clear_screen","canvas-keyboard-response","262","572247","0.0-11.0-1.125","102","2022-3-11","14:0:8","1","20","[""Asian""]","No","Female","1109294","","","","","","","","152","85","85","17","25","",""
"1379","6","rating","canvas-keyboard-response","263","573637","0.0-11.0-0.126","102","2022-3-11","14:0:8","1","20","[""Asian""]","No","Female","1109294","","","","","","","","216","57","113","25","33","0",""
"null","null","clear_screen","canvas-keyboard-response","264","573896","0.0-11.0-1.126","102","2022-3-11","14:0:8","1","20","[""Asian""]","No","Female","1109294","","","","","","","","216","57","113","25","33","",""
"2065","5","rating","canvas-keyboard-response","265","575973","0.0-11.0-0.127","102","2022-3-11","14:0:8","1","20","[""Asian""]","No","Female","1109294","","","","","","","","142","57","140","17","33","0",""
"null","null","clear_screen","canvas-keyboard-response","266","576231","0.0-11.0-1.127","102","2022-3-11","14:0:8","1","20","[""Asian""]","No","Female","1109294","","","","","","","","142","57","140","17","33","",""
"3236","7","rating","canvas-keyboard-response","267","579477","0.0-11.0-0.128","102","2022-3-11","14:0:8","1","20","[""Asian""]","No","Female","1109294","","","","","","","","271","57","113","33","40","1",""
"null","null","clear_screen","canvas-keyboard-response","268","579735","0.0-11.0-1.128","102","2022-3-11","14:0:8","1","20","[""Asian""]","No","Female","1109294","","","","","","","","271","57","113","33","40","",""
"3868","4","rating","canvas-keyboard-response","269","583612","0.0-11.0-0.129","102","2022-3-11","14:0:8","1","20","[""Asian""]","No","Female","1109294","","","","","","","","43","57","30","10","40","1",""
"null","null","clear_screen","canvas-keyboard-response","270","583871","0.0-11.0-1.129","102","2022-3-11","14:0:8","1","20","[""Asian""]","No","Female","1109294","","","","","","","","43","57","30","10","40","",""
"1324","9","rating","canvas-keyboard-response","271","585206","0.0-11.0-0.130","102","2022-3-11","14:0:8","1","20","[""Asian""]","No","Female","1109294","","","","","","","","269","57","57","33","40","1",""
"null","null","clear_screen","canvas-keyboard-response","272","585464","0.0-11.0-1.130","102","2022-3-11","14:0:8","1","20","[""Asian""]","No","Female","1109294","","","","","","","","269","57","57","33","40","",""
"1498","8","rating","canvas-keyboard-response","273","586972","0.0-11.0-0.131","102","2022-3-11","14:0:8","1","20","[""Asian""]","No","Female","1109294","","","","","","","","201","30","57","25","33","1",""
"null","null","clear_screen","canvas-keyboard-response","274","587231","0.0-11.0-1.131","102","2022-3-11","14:0:8","1","20","[""Asian""]","No","Female","1109294","","","","","","","","201","30","57","25","33","",""
"1836","1","rating","canvas-keyboard-response","275","589077","0.0-11.0-0.132","102","2022-3-11","14:0:8","1","20","[""Asian""]","No","Female","1109294","","","","","","","","102","140","57","10","33","1",""
"null","null","clear_screen","canvas-keyboard-response","276","589335","0.0-11.0-1.132","102","2022-3-11","14:0:8","1","20","[""Asian""]","No","Female","1109294","","","","","","","","102","140","57","10","33","",""
"2611","7","rating","canvas-keyboard-response","277","591956","0.0-11.0-0.133","102","2022-3-11","14:0:8","1","20","[""Asian""]","No","Female","1109294","","","","","","","","194","140","113","17","40","0",""
"null","null","clear_screen","canvas-keyboard-response","278","592214","0.0-11.0-1.133","102","2022-3-11","14:0:8","1","20","[""Asian""]","No","Female","1109294","","","","","","","","194","140","113","17","40","",""
"2183","1","rating","canvas-keyboard-response","279","594413","0.0-11.0-0.134","102","2022-3-11","14:0:8","1","20","[""Asian""]","No","Female","1109294","","","","","","","","128","30","113","17","40","0",""
"null","null","clear_screen","canvas-keyboard-response","280","594671","0.0-11.0-1.134","102","2022-3-11","14:0:8","1","20","[""Asian""]","No","Female","1109294","","","","","","","","128","30","113","17","40","",""
"2771","1","rating","canvas-keyboard-response","281","597452","0.0-11.0-0.135","102","2022-3-11","14:0:8","1","20","[""Asian""]","No","Female","1109294","","","","","","","","13","30","113","10","25","1",""
"null","null","clear_screen","canvas-keyboard-response","282","597711","0.0-11.0-1.135","102","2022-3-11","14:0:8","1","20","[""Asian""]","No","Female","1109294","","","","","","","","13","30","113","10","25","",""
"3156","5","rating","canvas-keyboard-response","283","600877","0.0-11.0-0.136","102","2022-3-11","14:0:8","1","20","[""Asian""]","No","Female","1109294","","","","","","","","272","57","140","33","40","1",""
"null","null","clear_screen","canvas-keyboard-response","284","601135","0.0-11.0-1.136","102","2022-3-11","14:0:8","1","20","[""Asian""]","No","Female","1109294","","","","","","","","272","57","140","33","40","",""
"3469","4","rating","canvas-keyboard-response","285","604612","0.0-11.0-0.137","102","2022-3-11","14:0:8","1","20","[""Asian""]","No","Female","1109294","","","","","","","","98","140","85","10","25","0",""
"null","null","clear_screen","canvas-keyboard-response","286","604871","0.0-11.0-1.137","102","2022-3-11","14:0:8","1","20","[""Asian""]","No","Female","1109294","","","","","","","","98","140","85","10","25","",""
"4031","3","rating","canvas-keyboard-response","287","608909","0.0-11.0-0.138","102","2022-3-11","14:0:8","1","20","[""Asian""]","No","Female","1109294","","","","","","","","251","140","30","25","40","0",""
"null","null","clear_screen","canvas-keyboard-response","288","609171","0.0-11.0-1.138","102","2022-3-11","14:0:8","1","20","[""Asian""]","No","Female","1109294","","","","","","","","251","140","30","25","40","",""
"2931","9","rating","canvas-keyboard-response","289","612116","0.0-11.0-0.139","102","2022-3-11","14:0:8","1","20","[""Asian""]","No","Female","1109294","","","","","","","","214","57","57","25","33","0",""
"null","null","clear_screen","canvas-keyboard-response","290","612377","0.0-11.0-1.139","102","2022-3-11","14:0:8","1","20","[""Asian""]","No","Female","1109294","","","","","","","","214","57","57","25","33","",""
"1811","9","rating","canvas-keyboard-response","291","614205","0.0-11.0-0.140","102","2022-3-11","14:0:8","1","20","[""Asian""]","No","Female","1109294","","","","","","","","5","30","30","10","17","0",""
"null","null","clear_screen","canvas-keyboard-response","292","614464","0.0-11.0-1.140","102","2022-3-11","14:0:8","1","20","[""Asian""]","No","Female","1109294","","","","","","","","5","30","30","10","17","",""
"2305","9","rating","canvas-keyboard-response","293","616781","0.0-11.0-0.141","102","2022-3-11","14:0:8","1","20","[""Asian""]","No","Female","1109294","","","","","","","","249","140","113","25","33","0",""
"null","null","clear_screen","canvas-keyboard-response","294","617039","0.0-11.0-1.141","102","2022-3-11","14:0:8","1","20","[""Asian""]","No","Female","1109294","","","","","","","","249","140","113","25","33","",""
"5594","4","rating","canvas-keyboard-response","295","622644","0.0-11.0-0.142","102","2022-3-11","14:0:8","1","20","[""Asian""]","No","Female","1109294","","","","","","","","96","140","30","10","25","0",""
"null","null","clear_screen","canvas-keyboard-response","296","622903","0.0-11.0-1.142","102","2022-3-11","14:0:8","1","20","[""Asian""]","No","Female","1109294","","","","","","","","96","140","30","10","25","",""
"5707","2","rating","canvas-keyboard-response","297","628621","0.0-11.0-0.143","102","2022-3-11","14:0:8","1","20","[""Asian""]","No","Female","1109294","","","","","","","","171","113","30","17","33","1",""
"null","null","clear_screen","canvas-keyboard-response","298","628881","0.0-11.0-1.143","102","2022-3-11","14:0:8","1","20","[""Asian""]","No","Female","1109294","","","","","","","","171","113","30","17","33","",""
"3057","4","rating","canvas-keyboard-response","299","631949","0.0-11.0-0.144","102","2022-3-11","14:0:8","1","20","[""Asian""]","No","Female","1109294","","","","","","","","8","30","113","10","17","1",""
"null","null","clear_screen","canvas-keyboard-response","300","632207","0.0-11.0-1.144","102","2022-3-11","14:0:8","1","20","[""Asian""]","No","Female","1109294","","","","","","","","8","30","113","10","17","",""
"2682","7","rating","canvas-keyboard-response","301","634901","0.0-11.0-0.145","102","2022-3-11","14:0:8","1","20","[""Asian""]","No","Female","1109294","","","","","","","","243","113","85","25","40","1",""
"null","null","clear_screen","canvas-keyboard-response","302","635159","0.0-11.0-1.145","102","2022-3-11","14:0:8","1","20","[""Asian""]","No","Female","1109294","","","","","","","","243","113","85","25","40","",""
"1491","6","rating","canvas-keyboard-response","303","636660","0.0-11.0-0.146","102","2022-3-11","14:0:8","1","20","[""Asian""]","No","Female","1109294","","","","","","","","229","85","140","25","33","0",""
"null","null","clear_screen","canvas-keyboard-response","304","636919","0.0-11.0-1.146","102","2022-3-11","14:0:8","1","20","[""Asian""]","No","Female","1109294","","","","","","","","229","85","140","25","33","",""
"2259","8","rating","canvas-keyboard-response","305","639188","0.0-11.0-0.147","102","2022-3-11","14:0:8","1","20","[""Asian""]","No","Female","1109294","","","","","","","","291","30","57","40","40","0",""
"null","null","clear_screen","canvas-keyboard-response","306","639448","0.0-11.0-1.147","102","2022-3-11","14:0:8","1","20","[""Asian""]","No","Female","1109294","","","","","","","","291","30","57","40","40","",""
"2070","8","rating","canvas-keyboard-response","307","641533","0.0-11.0-0.148","102","2022-3-11","14:0:8","1","20","[""Asian""]","No","Female","1109294","","","","","","","","197","30","85","25","25","1",""
"null","null","clear_screen","canvas-keyboard-response","308","641795","0.0-11.0-1.148","102","2022-3-11","14:0:8","1","20","[""Asian""]","No","Female","1109294","","","","","","","","197","30","85","25","25","",""
"1694","8","rating","canvas-keyboard-response","309","643501","0.0-11.0-0.149","102","2022-3-11","14:0:8","1","20","[""Asian""]","No","Female","1109294","","","","","","","","95","140","140","10","17","1",""
"null","null","clear_screen","canvas-keyboard-response","310","643760","0.0-11.0-1.149","102","2022-3-11","14:0:8","1","20","[""Asian""]","No","Female","1109294","","","","","","","","95","140","140","10","17","",""
"3041","6","rating","canvas-keyboard-response","311","646812","0.0-11.0-0.150","102","2022-3-11","14:0:8","1","20","[""Asian""]","No","Female","1109294","","","","","","","","22","30","85","10","40","1",""
"null","null","clear_screen","canvas-keyboard-response","312","647071","0.0-11.0-1.150","102","2022-3-11","14:0:8","1","20","[""Asian""]","No","Female","1109294","","","","","","","","22","30","85","10","40","",""
"1994","9","rating","canvas-keyboard-response","313","649076","0.0-11.0-0.151","102","2022-3-11","14:0:8","1","20","[""Asian""]","No","Female","1109294","","","","","","","","135","57","85","17","25","1",""
"null","null","clear_screen","canvas-keyboard-response","314","649335","0.0-11.0-1.151","102","2022-3-11","14:0:8","1","20","[""Asian""]","No","Female","1109294","","","","","","","","135","57","85","17","25","",""
"4145","8","rating","canvas-keyboard-response","315","653493","0.0-11.0-0.152","102","2022-3-11","14:0:8","1","20","[""Asian""]","No","Female","1109294","","","","","","","","288","140","85","33","40","0",""
"null","null","clear_screen","canvas-keyboard-response","316","653750","0.0-11.0-1.152","102","2022-3-11","14:0:8","1","20","[""Asian""]","No","Female","1109294","","","","","","","","288","140","85","33","40","",""
"3011","6","rating","canvas-keyboard-response","317","656772","0.0-11.0-0.153","102","2022-3-11","14:0:8","1","20","[""Asian""]","No","Female","1109294","","","","","","","","287","140","57","33","40","0",""
"null","null","clear_screen","canvas-keyboard-response","318","657030","0.0-11.0-1.153","102","2022-3-11","14:0:8","1","20","[""Asian""]","No","Female","1109294","","","","","","","","287","140","57","33","40","",""
"8547","6","rating","canvas-keyboard-response","319","665588","0.0-11.0-0.154","102","2022-3-11","14:0:8","1","20","[""Asian""]","No","Female","1109294","","","","","","","","296","57","113","40","40","0",""
"null","null","clear_screen","canvas-keyboard-response","320","665846","0.0-11.0-1.154","102","2022-3-11","14:0:8","1","20","[""Asian""]","No","Female","1109294","","","","","","","","296","57","113","40","40","",""
"1909","2","rating","canvas-keyboard-response","321","667765","0.0-11.0-0.155","102","2022-3-11","14:0:8","1","20","[""Asian""]","No","Female","1109294","","","","","","","","293","30","113","40","40","0",""
"null","null","clear_screen","canvas-keyboard-response","322","668023","0.0-11.0-1.155","102","2022-3-11","14:0:8","1","20","[""Asian""]","No","Female","1109294","","","","","","","","293","30","113","40","40","",""
"1611","3","rating","canvas-keyboard-response","323","669644","0.0-11.0-0.156","102","2022-3-11","14:0:8","1","20","[""Asian""]","No","Female","1109294","","","","","","","","177","113","57","17","40","0",""
"null","null","clear_screen","canvas-keyboard-response","324","669902","0.0-11.0-1.156","102","2022-3-11","14:0:8","1","20","[""Asian""]","No","Female","1109294","","","","","","","","177","113","57","17","40","",""
"2665","7","rating","canvas-keyboard-response","325","672581","0.0-11.0-0.157","102","2022-3-11","14:0:8","1","20","[""Asian""]","No","Female","1109294","","","","","","","","220","57","85","25","40","1",""
"null","null","clear_screen","canvas-keyboard-response","326","672842","0.0-11.0-1.157","102","2022-3-11","14:0:8","1","20","[""Asian""]","No","Female","1109294","","","","","","","","220","57","85","25","40","",""
"2182","7","rating","canvas-keyboard-response","327","675037","0.0-11.0-0.158","102","2022-3-11","14:0:8","1","20","[""Asian""]","No","Female","1109294","","","","","","","","49","85","140","10","10","1",""
"null","null","clear_screen","canvas-keyboard-response","328","675296","0.0-11.0-1.158","102","2022-3-11","14:0:8","1","20","[""Asian""]","No","Female","1109294","","","","","","","","49","85","140","10","10","",""
"2144","7","rating","canvas-keyboard-response","329","677452","0.0-11.0-0.159","102","2022-3-11","14:0:8","1","20","[""Asian""]","No","Female","1109294","","","","","","","","195","140","140","17","40","1",""
"null","null","clear_screen","canvas-keyboard-response","330","677712","0.0-11.0-1.159","102","2022-3-11","14:0:8","1","20","[""Asian""]","No","Female","1109294","","","","","","","","195","140","140","17","40","",""
"5098","9","rating","canvas-keyboard-response","331","682820","0.0-11.0-0.160","102","2022-3-11","14:0:8","1","20","[""Asian""]","No","Female","1109294","","","","","","","","196","30","57","25","25","1",""
"null","null","clear_screen","canvas-keyboard-response","332","683080","0.0-11.0-1.160","102","2022-3-11","14:0:8","1","20","[""Asian""]","No","Female","1109294","","","","","","","","196","30","57","25","25","",""
"3399","6","rating","canvas-keyboard-response","333","686492","0.0-11.0-0.161","102","2022-3-11","14:0:8","1","20","[""Asian""]","No","Female","1109294","","","","","","","","36","57","113","10","25","1",""
"null","null","clear_screen","canvas-keyboard-response","334","686752","0.0-11.0-1.161","102","2022-3-11","14:0:8","1","20","[""Asian""]","No","Female","1109294","","","","","","","","36","57","113","10","25","",""
"2785","5","rating","canvas-keyboard-response","335","689548","0.0-11.0-0.162","102","2022-3-11","14:0:8","1","20","[""Asian""]","No","Female","1109294","","","","","","","","69","85","140","10","40","1",""
"null","null","clear_screen","canvas-keyboard-response","336","689808","0.0-11.0-1.162","102","2022-3-11","14:0:8","1","20","[""Asian""]","No","Female","1109294","","","","","","","","69","85","140","10","40","",""
"5234","6","rating","canvas-keyboard-response","337","695052","0.0-11.0-0.163","102","2022-3-11","14:0:8","1","20","[""Asian""]","No","Female","1109294","","","","","","","","117","30","85","17","25","1",""
"null","null","clear_screen","canvas-keyboard-response","338","695311","0.0-11.0-1.163","102","2022-3-11","14:0:8","1","20","[""Asian""]","No","Female","1109294","","","","","","","","117","30","85","17","25","",""
"2635","3","rating","canvas-keyboard-response","339","697956","0.0-11.0-0.164","102","2022-3-11","14:0:8","1","20","[""Asian""]","No","Female","1109294","","","","","","","","72","113","57","10","17","1",""
"null","null","clear_screen","canvas-keyboard-response","340","698215","0.0-11.0-1.164","102","2022-3-11","14:0:8","1","20","[""Asian""]","No","Female","1109294","","","","","","","","72","113","57","10","17","",""
"3562","5","rating","canvas-keyboard-response","341","701787","0.0-11.0-0.165","102","2022-3-11","14:0:8","1","20","[""Asian""]","No","Female","1109294","","","","","","","","145","57","85","17","40","0",""
"null","null","clear_screen","canvas-keyboard-response","342","702045","0.0-11.0-1.165","102","2022-3-11","14:0:8","1","20","[""Asian""]","No","Female","1109294","","","","","","","","145","57","85","17","40","",""
"1740","9","rating","canvas-keyboard-response","343","703796","0.0-11.0-0.166","102","2022-3-11","14:0:8","1","20","[""Asian""]","No","Female","1109294","","","","","","","","48","85","113","10","10","0",""
"null","null","clear_screen","canvas-keyboard-response","344","704055","0.0-11.0-1.166","102","2022-3-11","14:0:8","1","20","[""Asian""]","No","Female","1109294","","","","","","","","48","85","113","10","10","",""
"2003","8","rating","canvas-keyboard-response","345","706069","0.0-11.0-0.167","102","2022-3-11","14:0:8","1","20","[""Asian""]","No","Female","1109294","","","","","","","","40","57","85","10","33","0",""
"null","null","clear_screen","canvas-keyboard-response","346","706331","0.0-11.0-1.167","102","2022-3-11","14:0:8","1","20","[""Asian""]","No","Female","1109294","","","","","","","","40","57","85","10","33","",""
"2053","7","rating","canvas-keyboard-response","347","708396","0.0-11.0-0.168","102","2022-3-11","14:0:8","1","20","[""Asian""]","No","Female","1109294","","","","","","","","110","140","140","10","40","0",""
"null","null","clear_screen","canvas-keyboard-response","348","708654","0.0-11.0-1.168","102","2022-3-11","14:0:8","1","20","[""Asian""]","No","Female","1109294","","","","","","","","110","140","140","10","40","",""
"4139","1","rating","canvas-keyboard-response","349","712803","0.0-11.0-0.169","102","2022-3-11","14:0:8","1","20","[""Asian""]","No","Female","1109294","","","","","","","","191","140","30","17","40","0",""
"null","null","clear_screen","canvas-keyboard-response","350","713062","0.0-11.0-1.169","102","2022-3-11","14:0:8","1","20","[""Asian""]","No","Female","1109294","","","","","","","","191","140","30","17","40","",""
"2700","7","rating","canvas-keyboard-response","351","715772","0.0-11.0-0.170","102","2022-3-11","14:0:8","1","20","[""Asian""]","No","Female","1109294","","","","","","","","134","57","57","17","25","1",""
"null","null","clear_screen","canvas-keyboard-response","352","716029","0.0-11.0-1.170","102","2022-3-11","14:0:8","1","20","[""Asian""]","No","Female","1109294","","","","","","","","134","57","57","17","25","",""
"2643","6","rating","canvas-keyboard-response","353","718684","0.0-11.0-0.171","102","2022-3-11","14:0:8","1","20","[""Asian""]","No","Female","1109294","","","","","","","","44","57","57","10","40","0",""
"null","null","clear_screen","canvas-keyboard-response","354","718941","0.0-11.0-1.171","102","2022-3-11","14:0:8","1","20","[""Asian""]","No","Female","1109294","","","","","","","","44","57","57","10","40","",""
"2917","5","rating","canvas-keyboard-response","355","721868","0.0-11.0-0.172","102","2022-3-11","14:0:8","1","20","[""Asian""]","No","Female","1109294","","","","","","","","172","113","57","17","33","0",""
"null","null","clear_screen","canvas-keyboard-response","356","722126","0.0-11.0-1.172","102","2022-3-11","14:0:8","1","20","[""Asian""]","No","Female","1109294","","","","","","","","172","113","57","17","33","",""
"2667","6","rating","canvas-keyboard-response","357","724803","0.0-11.0-0.173","102","2022-3-11","14:0:8","1","20","[""Asian""]","No","Female","1109294","","","","","","","","62","85","85","10","33","0",""
"null","null","clear_screen","canvas-keyboard-response","358","725062","0.0-11.0-1.173","102","2022-3-11","14:0:8","1","20","[""Asian""]","No","Female","1109294","","","","","","","","62","85","85","10","33","",""
"3091","4","rating","canvas-keyboard-response","359","728163","0.0-11.0-0.174","102","2022-3-11","14:0:8","1","20","[""Asian""]","No","Female","1109294","","","","","","","","138","57","30","17","33","1",""
"null","null","clear_screen","canvas-keyboard-response","360","728422","0.0-11.0-1.174","102","2022-3-11","14:0:8","1","20","[""Asian""]","No","Female","1109294","","","","","","","","138","57","30","17","33","",""
"3387","5","rating","canvas-keyboard-response","361","731819","0.0-11.0-0.175","102","2022-3-11","14:0:8","1","20","[""Asian""]","No","Female","1109294","","","","","","","","202","30","85","25","33","1",""
"null","null","clear_screen","canvas-keyboard-response","362","732077","0.0-11.0-1.175","102","2022-3-11","14:0:8","1","20","[""Asian""]","No","Female","1109294","","","","","","","","202","30","85","25","33","",""
"2785","6","rating","canvas-keyboard-response","363","734876","0.0-11.0-0.176","102","2022-3-11","14:0:8","1","20","[""Asian""]","No","Female","1109294","","","","","","","","275","85","30","33","40","1",""
"null","null","clear_screen","canvas-keyboard-response","364","735133","0.0-11.0-1.176","102","2022-3-11","14:0:8","1","20","[""Asian""]","No","Female","1109294","","","","","","","","275","85","30","33","40","",""
"3532","5","rating","canvas-keyboard-response","365","738675","0.0-11.0-0.177","102","2022-3-11","14:0:8","1","20","[""Asian""]","No","Female","1109294","","","","","","","","238","113","85","25","33","1",""
"null","null","clear_screen","canvas-keyboard-response","366","738934","0.0-11.0-1.177","102","2022-3-11","14:0:8","1","20","[""Asian""]","No","Female","1109294","","","","","","","","238","113","85","25","33","",""
"2283","6","rating","canvas-keyboard-response","367","741228","0.0-11.0-0.178","102","2022-3-11","14:0:8","1","20","[""Asian""]","No","Female","1109294","","","","","","","","266","57","113","33","33","1",""
"null","null","clear_screen","canvas-keyboard-response","368","741486","0.0-11.0-1.178","102","2022-3-11","14:0:8","1","20","[""Asian""]","No","Female","1109294","","","","","","","","266","57","113","33","33","",""
"1626","7","rating","canvas-keyboard-response","369","743125","0.0-11.0-0.179","102","2022-3-11","14:0:8","1","20","[""Asian""]","No","Female","1109294","","","","","","","","75","113","140","10","17","0",""
"null","null","clear_screen","canvas-keyboard-response","370","743386","0.0-11.0-1.179","102","2022-3-11","14:0:8","1","20","[""Asian""]","No","Female","1109294","","","","","","","","75","113","140","10","17","",""
"1675","9","rating","canvas-keyboard-response","371","745075","0.0-11.0-0.180","102","2022-3-11","14:0:8","1","20","[""Asian""]","No","Female","1109294","","","","","","","","115","30","30","17","25","1",""
"null","null","clear_screen","canvas-keyboard-response","372","745336","0.0-11.0-1.180","102","2022-3-11","14:0:8","1","20","[""Asian""]","No","Female","1109294","","","","","","","","115","30","30","17","25","",""
"2634","8","rating","canvas-keyboard-response","373","747980","0.0-11.0-0.181","102","2022-3-11","14:0:8","1","20","[""Asian""]","No","Female","1109294","","","","","","","","156","85","57","17","33","0",""
"null","null","clear_screen","canvas-keyboard-response","374","748240","0.0-11.0-1.181","102","2022-3-11","14:0:8","1","20","[""Asian""]","No","Female","1109294","","","","","","","","156","85","57","17","33","",""
"1626","8","rating","canvas-keyboard-response","375","749876","0.0-11.0-0.182","102","2022-3-11","14:0:8","1","20","[""Asian""]","No","Female","1109294","","","","","","","","270","57","85","33","40","1",""
"null","null","clear_screen","canvas-keyboard-response","376","750134","0.0-11.0-1.182","102","2022-3-11","14:0:8","1","20","[""Asian""]","No","Female","1109294","","","","","","","","270","57","85","33","40","",""
"2459","7","rating","canvas-keyboard-response","377","752603","0.0-11.0-0.183","102","2022-3-11","14:0:8","1","20","[""Asian""]","No","Female","1109294","","","","","","","","170","113","140","17","25","0",""
"null","null","clear_screen","canvas-keyboard-response","378","752862","0.0-11.0-1.183","102","2022-3-11","14:0:8","1","20","[""Asian""]","No","Female","1109294","","","","","","","","170","113","140","17","25","",""
"2219","6","rating","canvas-keyboard-response","379","755092","0.0-11.0-0.184","102","2022-3-11","14:0:8","1","20","[""Asian""]","No","Female","1109294","","","","","","","","174","113","113","17","33","1",""
"null","null","clear_screen","canvas-keyboard-response","380","755351","0.0-11.0-1.184","102","2022-3-11","14:0:8","1","20","[""Asian""]","No","Female","1109294","","","","","","","","174","113","113","17","33","",""
"4121","1","rating","canvas-keyboard-response","381","759484","0.0-11.0-0.185","102","2022-3-11","14:0:8","1","20","[""Asian""]","No","Female","1109294","","","","","","","","86","113","30","10","40","0",""
"null","null","clear_screen","canvas-keyboard-response","382","759743","0.0-11.0-1.185","102","2022-3-11","14:0:8","1","20","[""Asian""]","No","Female","1109294","","","","","","","","86","113","30","10","40","",""
"2081","3","rating","canvas-keyboard-response","383","761836","0.0-11.0-0.186","102","2022-3-11","14:0:8","1","20","[""Asian""]","No","Female","1109294","","","","","","","","103","140","85","10","33","0",""
"null","null","clear_screen","canvas-keyboard-response","384","762095","0.0-11.0-1.186","102","2022-3-11","14:0:8","1","20","[""Asian""]","No","Female","1109294","","","","","","","","103","140","85","10","33","",""
"1283","9","rating","canvas-keyboard-response","385","763388","0.0-11.0-0.187","102","2022-3-11","14:0:8","1","20","[""Asian""]","No","Female","1109294","","","","","","","","29","57","57","10","17","0",""
"null","null","clear_screen","canvas-keyboard-response","386","763645","0.0-11.0-1.187","102","2022-3-11","14:0:8","1","20","[""Asian""]","No","Female","1109294","","","","","","","","29","57","57","10","17","",""
"2090","6","rating","canvas-keyboard-response","387","765747","0.0-11.0-0.188","102","2022-3-11","14:0:8","1","20","[""Asian""]","No","Female","1109294","","","","","","","","168","113","85","17","25","1",""
"null","null","clear_screen","canvas-keyboard-response","388","766010","0.0-11.0-1.188","102","2022-3-11","14:0:8","1","20","[""Asian""]","No","Female","1109294","","","","","","","","168","113","85","17","25","",""
"2191","8","rating","canvas-keyboard-response","389","768212","0.0-11.0-0.189","102","2022-3-11","14:0:8","1","20","[""Asian""]","No","Female","1109294","","","","","","","","210","57","85","25","25","1",""
"null","null","clear_screen","canvas-keyboard-response","390","768471","0.0-11.0-1.189","102","2022-3-11","14:0:8","1","20","[""Asian""]","No","Female","1109294","","","","","","","","210","57","85","25","25","",""
"2777","7","rating","canvas-keyboard-response","391","771260","0.0-11.0-0.190","102","2022-3-11","14:0:8","1","20","[""Asian""]","No","Female","1109294","","","","","","","","248","140","85","25","33","0",""
"null","null","clear_screen","canvas-keyboard-response","392","771518","0.0-11.0-1.190","102","2022-3-11","14:0:8","1","20","[""Asian""]","No","Female","1109294","","","","","","","","248","140","85","25","33","",""
"1467","6","rating","canvas-keyboard-response","393","772995","0.0-11.0-0.191","102","2022-3-11","14:0:8","1","20","[""Asian""]","No","Female","1109294","","","","","","","","104","140","113","10","33","0",""
"null","null","clear_screen","canvas-keyboard-response","394","773253","0.0-11.0-1.191","102","2022-3-11","14:0:8","1","20","[""Asian""]","No","Female","1109294","","","","","","","","104","140","113","10","33","",""
"3331","5","rating","canvas-keyboard-response","395","776595","0.0-11.0-0.192","102","2022-3-11","14:0:8","1","20","[""Asian""]","No","Female","1109294","","","","","","","","222","57","140","25","40","1",""
"null","null","clear_screen","canvas-keyboard-response","396","776854","0.0-11.0-1.192","102","2022-3-11","14:0:8","1","20","[""Asian""]","No","Female","1109294","","","","","","","","222","57","140","25","40","",""
"2188","9","rating","canvas-keyboard-response","397","779052","0.0-11.0-0.193","102","2022-3-11","14:0:8","1","20","[""Asian""]","No","Female","1109294","","","","","","","","250","140","140","25","33","1",""
"null","null","clear_screen","canvas-keyboard-response","398","779310","0.0-11.0-1.193","102","2022-3-11","14:0:8","1","20","[""Asian""]","No","Female","1109294","","","","","","","","250","140","140","25","33","",""
"1964","7","rating","canvas-keyboard-response","399","781283","0.0-11.0-0.194","102","2022-3-11","14:0:8","1","20","[""Asian""]","No","Female","1109294","","","","","","","","109","140","113","10","40","0",""
"null","null","clear_screen","canvas-keyboard-response","400","781541","0.0-11.0-1.194","102","2022-3-11","14:0:8","1","20","[""Asian""]","No","Female","1109294","","","","","","","","109","140","113","10","40","",""
"2355","7","rating","canvas-keyboard-response","401","783907","0.0-11.0-0.195","102","2022-3-11","14:0:8","1","20","[""Asian""]","No","Female","1109294","","","","","","","","256","30","57","33","33","1",""
"null","null","clear_screen","canvas-keyboard-response","402","784165","0.0-11.0-1.195","102","2022-3-11","14:0:8","1","20","[""Asian""]","No","Female","1109294","","","","","","","","256","30","57","33","33","",""
"2819","6","rating","canvas-keyboard-response","403","786995","0.0-11.0-0.196","102","2022-3-11","14:0:8","1","20","[""Asian""]","No","Female","1109294","","","","","","","","4","30","140","10","10","1",""
"null","null","clear_screen","canvas-keyboard-response","404","787252","0.0-11.0-1.196","102","2022-3-11","14:0:8","1","20","[""Asian""]","No","Female","1109294","","","","","","","","4","30","140","10","10","",""
"2844","8","rating","canvas-keyboard-response","405","790107","0.0-11.0-0.197","102","2022-3-11","14:0:8","1","20","[""Asian""]","No","Female","1109294","","","","","","","","78","113","85","10","25","0",""
"null","null","clear_screen","canvas-keyboard-response","406","790365","0.0-11.0-1.197","102","2022-3-11","14:0:8","1","20","[""Asian""]","No","Female","1109294","","","","","","","","78","113","85","10","25","",""
"2228","9","rating","canvas-keyboard-response","407","792604","0.0-11.0-0.198","102","2022-3-11","14:0:8","1","20","[""Asian""]","No","Female","1109294","","","","","","","","278","85","113","33","40","1",""
"null","null","clear_screen","canvas-keyboard-response","408","792867","0.0-11.0-1.198","102","2022-3-11","14:0:8","1","20","[""Asian""]","No","Female","1109294","","","","","","","","278","85","113","33","40","",""
"1522","8","rating","canvas-keyboard-response","409","794404","0.0-11.0-0.199","102","2022-3-11","14:0:8","1","20","[""Asian""]","No","Female","1109294","","","","","","","","57","85","85","10","25","1",""
"null","null","clear_screen","canvas-keyboard-response","410","794663","0.0-11.0-1.199","102","2022-3-11","14:0:8","1","20","[""Asian""]","No","Female","1109294","","","","","","","","57","85","85","10","25","",""
"2170","7","rating","canvas-keyboard-response","411","796844","0.0-11.0-0.200","102","2022-3-11","14:0:8","1","20","[""Asian""]","No","Female","1109294","","","","","","","","56","85","57","10","25","0",""
"null","null","clear_screen","canvas-keyboard-response","412","797103","0.0-11.0-1.200","102","2022-3-11","14:0:8","1","20","[""Asian""]","No","Female","1109294","","","","","","","","56","85","57","10","25","",""
"3312","5","rating","canvas-keyboard-response","413","800427","0.0-11.0-0.201","102","2022-3-11","14:0:8","1","20","[""Asian""]","No","Female","1109294","","","","","","","","146","57","113","17","40","1",""
"null","null","clear_screen","canvas-keyboard-response","414","800686","0.0-11.0-1.201","102","2022-3-11","14:0:8","1","20","[""Asian""]","No","Female","1109294","","","","","","","","146","57","113","17","40","",""
"1874","6","rating","canvas-keyboard-response","415","802571","0.0-11.0-0.202","102","2022-3-11","14:0:8","1","20","[""Asian""]","No","Female","1109294","","","","","","","","6","30","57","10","17","1",""
"null","null","clear_screen","canvas-keyboard-response","416","802830","0.0-11.0-1.202","102","2022-3-11","14:0:8","1","20","[""Asian""]","No","Female","1109294","","","","","","","","6","30","57","10","17","",""
"1554","1","rating","canvas-keyboard-response","417","804396","0.0-11.0-0.203","102","2022-3-11","14:0:8","1","20","[""Asian""]","No","Female","1109294","","","","","","","","164","85","140","17","40","0",""
"null","null","clear_screen","canvas-keyboard-response","418","804655","0.0-11.0-1.203","102","2022-3-11","14:0:8","1","20","[""Asian""]","No","Female","1109294","","","","","","","","164","85","140","17","40","",""
"2033","6","rating","canvas-keyboard-response","419","806699","0.0-11.0-0.204","102","2022-3-11","14:0:8","1","20","[""Asian""]","No","Female","1109294","","","","","","","","276","85","57","33","40","1",""
"null","null","clear_screen","canvas-keyboard-response","420","806957","0.0-11.0-1.204","102","2022-3-11","14:0:8","1","20","[""Asian""]","No","Female","1109294","","","","","","","","276","85","57","33","40","",""
"1707","1","rating","canvas-keyboard-response","421","808675","0.0-11.0-0.205","102","2022-3-11","14:0:8","1","20","[""Asian""]","No","Female","1109294","","","","","","","","24","30","140","10","40","0",""
"null","null","clear_screen","canvas-keyboard-response","422","808933","0.0-11.0-1.205","102","2022-3-11","14:0:8","1","20","[""Asian""]","No","Female","1109294","","","","","","","","24","30","140","10","40","",""
"1446","9","rating","canvas-keyboard-response","423","810395","0.0-11.0-0.206","102","2022-3-11","14:0:8","1","20","[""Asian""]","No","Female","1109294","","","","","","","","290","140","140","33","40","1",""
"null","null","clear_screen","canvas-keyboard-response","424","810659","0.0-11.0-1.206","102","2022-3-11","14:0:8","1","20","[""Asian""]","No","Female","1109294","","","","","","","","290","140","140","33","40","",""
"3277","3","rating","canvas-keyboard-response","425","813948","0.0-11.0-0.207","102","2022-3-11","14:0:8","1","20","[""Asian""]","No","Female","1109294","","","","","","","","129","30","140","17","40","1",""
"null","null","clear_screen","canvas-keyboard-response","426","814206","0.0-11.0-1.207","102","2022-3-11","14:0:8","1","20","[""Asian""]","No","Female","1109294","","","","","","","","129","30","140","17","40","",""
"2307","7","rating","canvas-keyboard-response","427","816524","0.0-11.0-0.208","102","2022-3-11","14:0:8","1","20","[""Asian""]","No","Female","1109294","","","","","","","","7","30","85","10","17","1",""
"null","null","clear_screen","canvas-keyboard-response","428","816783","0.0-11.0-1.208","102","2022-3-11","14:0:8","1","20","[""Asian""]","No","Female","1109294","","","","","","","","7","30","85","10","17","",""
"3651","4","rating","canvas-keyboard-response","429","820443","0.0-11.0-0.209","102","2022-3-11","14:0:8","1","20","[""Asian""]","No","Female","1109294","","","","","","","","237","113","57","25","33","1",""
"null","null","clear_screen","canvas-keyboard-response","430","820702","0.0-11.0-1.209","102","2022-3-11","14:0:8","1","20","[""Asian""]","No","Female","1109294","","","","","","","","237","113","57","25","33","",""
"2299","5","rating","canvas-keyboard-response","431","823011","0.0-11.0-0.210","102","2022-3-11","14:0:8","1","20","[""Asian""]","No","Female","1109294","","","","","","","","88","113","85","10","40","1",""
"null","null","clear_screen","canvas-keyboard-response","432","823269","0.0-11.0-1.210","102","2022-3-11","14:0:8","1","20","[""Asian""]","No","Female","1109294","","","","","","","","88","113","85","10","40","",""
"1852","6","rating","canvas-keyboard-response","433","825131","0.0-11.0-0.211","102","2022-3-11","14:0:8","1","20","[""Asian""]","No","Female","1109294","","","","","","","","219","57","57","25","40","0",""
"null","null","clear_screen","canvas-keyboard-response","434","825389","0.0-11.0-1.211","102","2022-3-11","14:0:8","1","20","[""Asian""]","No","Female","1109294","","","","","","","","219","57","57","25","40","",""
"1452","7","rating","canvas-keyboard-response","435","826852","0.0-11.0-0.212","102","2022-3-11","14:0:8","1","20","[""Asian""]","No","Female","1109294","","","","","","","","244","113","113","25","40","1",""
"null","null","clear_screen","canvas-keyboard-response","436","827110","0.0-11.0-1.212","102","2022-3-11","14:0:8","1","20","[""Asian""]","No","Female","1109294","","","","","","","","244","113","113","25","40","",""
"3795","3","rating","canvas-keyboard-response","437","830915","0.0-11.0-0.213","102","2022-3-11","14:0:8","1","20","[""Asian""]","No","Female","1109294","","","","","","","","124","30","140","17","33","0",""
"null","null","clear_screen","canvas-keyboard-response","438","831175","0.0-11.0-1.213","102","2022-3-11","14:0:8","1","20","[""Asian""]","No","Female","1109294","","","","","","","","124","30","140","17","33","",""
"3721","4","rating","canvas-keyboard-response","439","834907","0.0-11.0-0.214","102","2022-3-11","14:0:8","1","20","[""Asian""]","No","Female","1109294","","","","","","","","212","57","140","25","25","0",""
"null","null","clear_screen","canvas-keyboard-response","440","835165","0.0-11.0-1.214","102","2022-3-11","14:0:8","1","20","[""Asian""]","No","Female","1109294","","","","","","","","212","57","140","25","25","",""
"2947","8","rating","canvas-keyboard-response","441","838124","0.0-11.0-0.215","102","2022-3-11","14:0:8","1","20","[""Asian""]","No","Female","1109294","","","","","","","","265","57","85","33","33","1",""
"null","null","clear_screen","canvas-keyboard-response","442","838381","0.0-11.0-1.215","102","2022-3-11","14:0:8","1","20","[""Asian""]","No","Female","1109294","","","","","","","","265","57","85","33","33","",""
"2307","1","rating","canvas-keyboard-response","443","840699","0.0-11.0-0.216","102","2022-3-11","14:0:8","1","20","[""Asian""]","No","Female","1109294","","","","","","","","106","140","30","10","40","1",""
"null","null","clear_screen","canvas-keyboard-response","444","840957","0.0-11.0-1.216","102","2022-3-11","14:0:8","1","20","[""Asian""]","No","Female","1109294","","","","","","","","106","140","30","10","40","",""
"2723","3","rating","canvas-keyboard-response","445","843692","0.0-11.0-0.217","102","2022-3-11","14:0:8","1","20","[""Asian""]","No","Female","1109294","","","","","","","","253","140","85","25","40","1",""
"null","null","clear_screen","canvas-keyboard-response","446","843950","0.0-11.0-1.217","102","2022-3-11","14:0:8","1","20","[""Asian""]","No","Female","1109294","","","","","","","","253","140","85","25","40","",""
"2338","9","rating","canvas-keyboard-response","447","846299","0.0-11.0-0.218","102","2022-3-11","14:0:8","1","20","[""Asian""]","No","Female","1109294","","","","","","","","255","140","140","25","40","1",""
"null","null","clear_screen","canvas-keyboard-response","448","846557","0.0-11.0-1.218","102","2022-3-11","14:0:8","1","20","[""Asian""]","No","Female","1109294","","","","","","","","255","140","140","25","40","",""
"1346","6","rating","canvas-keyboard-response","449","847914","0.0-11.0-0.219","102","2022-3-11","14:0:8","1","20","[""Asian""]","No","Female","1109294","","","","","","","","233","85","113","25","40","0",""
"null","null","clear_screen","canvas-keyboard-response","450","848172","0.0-11.0-1.219","102","2022-3-11","14:0:8","1","20","[""Asian""]","No","Female","1109294","","","","","","","","233","85","113","25","40","",""
"3203","6","rating","canvas-keyboard-response","451","851387","0.0-11.0-0.220","102","2022-3-11","14:0:8","1","20","[""Asian""]","No","Female","1109294","","","","","","","","294","30","140","40","40","0",""
"null","null","clear_screen","canvas-keyboard-response","452","851645","0.0-11.0-1.220","102","2022-3-11","14:0:8","1","20","[""Asian""]","No","Female","1109294","","","","","","","","294","30","140","40","40","",""
"1267","6","rating","canvas-keyboard-response","453","852923","0.0-11.0-0.221","102","2022-3-11","14:0:8","1","20","[""Asian""]","No","Female","1109294","","","","","","","","267","57","140","33","33","0",""
"null","null","clear_screen","canvas-keyboard-response","454","853181","0.0-11.0-1.221","102","2022-3-11","14:0:8","1","20","[""Asian""]","No","Female","1109294","","","","","","","","267","57","140","33","33","",""
"1531","7","rating","canvas-keyboard-response","455","854722","0.0-11.0-0.222","102","2022-3-11","14:0:8","1","20","[""Asian""]","No","Female","1109294","","","","","","","","157","85","85","17","33","1",""
"null","null","clear_screen","canvas-keyboard-response","456","854982","0.0-11.0-1.222","102","2022-3-11","14:0:8","1","20","[""Asian""]","No","Female","1109294","","","","","","","","157","85","85","17","33","",""
"2663","5","rating","canvas-keyboard-response","457","857659","0.0-11.0-0.223","102","2022-3-11","14:0:8","1","20","[""Asian""]","No","Female","1109294","","","","","","","","261","30","57","33","40","1",""
"null","null","clear_screen","canvas-keyboard-response","458","857917","0.0-11.0-1.223","102","2022-3-11","14:0:8","1","20","[""Asian""]","No","Female","1109294","","","","","","","","261","30","57","33","40","",""
"3348","4","rating","canvas-keyboard-response","459","861274","0.0-11.0-0.224","102","2022-3-11","14:0:8","1","20","[""Asian""]","No","Female","1109294","","","","","","","","282","113","57","33","40","1",""
"null","null","clear_screen","canvas-keyboard-response","460","861533","0.0-11.0-1.224","102","2022-3-11","14:0:8","1","20","[""Asian""]","No","Female","1109294","","","","","","","","282","113","57","33","40","",""
"2627","4","rating","canvas-keyboard-response","461","864170","0.0-11.0-0.225","102","2022-3-11","14:0:8","1","20","[""Asian""]","No","Female","1109294","","","","","","","","63","85","113","10","33","1",""
"null","null","clear_screen","canvas-keyboard-response","462","864429","0.0-11.0-1.225","102","2022-3-11","14:0:8","1","20","[""Asian""]","No","Female","1109294","","","","","","","","63","85","113","10","33","",""
"2579","3","rating","canvas-keyboard-response","463","867019","0.0-11.0-0.226","102","2022-3-11","14:0:8","1","20","[""Asian""]","No","Female","1109294","","","","","","","","155","85","30","17","33","1",""
"null","null","clear_screen","canvas-keyboard-response","464","867277","0.0-11.0-1.226","102","2022-3-11","14:0:8","1","20","[""Asian""]","No","Female","1109294","","","","","","","","155","85","30","17","33","",""
"1610","6","rating","canvas-keyboard-response","465","868898","0.0-11.0-0.227","102","2022-3-11","14:0:8","1","20","[""Asian""]","No","Female","1109294","","","","","","","","226","85","57","25","33","0",""
"null","null","clear_screen","canvas-keyboard-response","466","869158","0.0-11.0-1.227","102","2022-3-11","14:0:8","1","20","[""Asian""]","No","Female","1109294","","","","","","","","226","85","57","25","33","",""
"3976","5","rating","canvas-keyboard-response","467","873148","0.0-11.0-0.228","102","2022-3-11","14:0:8","1","20","[""Asian""]","No","Female","1109294","","","","","","","","262","30","85","33","40","0",""
