"rt","response","trialType","trial_type","trial_index","time_elapsed","internal_node_id","sub_n","date","time","leftRight","age","race","ethnicity","gender","exp_duration","success","timeout","failed_images","failed_audio","failed_video","stimulus","view_history","trialID","radius_a","radius_b","angle_a","angle_b","lrCond","question_order"
"25997","{""response"":""103""}","enter-sub-number","survey-html-form","0","26035","0.0-0.0","103","2022-3-22","14:37:5","1","20","[""Asian""]","No","Female","933398","","","","","","","","","","","","","",""
"","","","fullscreen","1","28104","0.0-1.0","103","2022-3-22","14:37:5","1","20","[""Asian""]","No","Female","933398","true","","","","","","","","","","","","",""
"","","","preload","2","28154","0.0-2.0","103","2022-3-22","14:37:5","1","20","[""Asian""]","No","Female","933398","true","false","[]","[]","[]","","","","","","","","",""
"8905","0","","html-button-response","3","37062","0.0-3.0","103","2022-3-22","14:37:5","1","20","[""Asian""]","No","Female","933398","","","","","","<div style= ""font-size:25px;"" <p> <strong> Welcome to the experiment! </strong><br> <p style=""color:#8B0000; font-size:25px;""><strong> Please do NOT exit full screen until you are done with the experiment. </strong> </p><p style=""font-size:25px;color:#8B0000;""> <strong> The experiment will be canceled and your data will be lost <br> if you try to go back or refresh the page at any point during the experiment.</strong> </p><br><p> <strong> Thanks in advance for your contribution to our research! </strong></p>","","","","","","","",""
"36714","","","instructions","4","73777","0.0-4.0","103","2022-3-22","14:37:5","1","20","[""Asian""]","No","Female","933398","","","","","","","[{""page_index"":0,""viewing_time"":20746},{""page_index"":1,""viewing_time"":7838},{""page_index"":2,""viewing_time"":8129}]","","","","","","",""
"null","null","presentPop","canvas-keyboard-response","5","89836","0.0-5.0","103","2022-3-22","14:37:5","1","20","[""Asian""]","No","Female","933398","","","","","","","","","","","","","",""
"null","null","clear_screen","canvas-keyboard-response","6","90598","0.0-6.0","103","2022-3-22","14:37:5","1","20","[""Asian""]","No","Female","933398","","","","","","","","","","","","","",""
"3888","","","instructions","7","94487","0.0-7.0","103","2022-3-22","14:37:5","1","20","[""Asian""]","No","Female","933398","","","","","","","[{""page_index"":0,""viewing_time"":3887}]","","","","","","",""
"null","null","presentPop","canvas-keyboard-response","8","110500","0.0-8.0","103","2022-3-22","14:37:5","1","20","[""Asian""]","No","Female","933398","","","","","","","","","","","","","",""
"null","null","clear_screen","canvas-keyboard-response","9","111267","0.0-9.0","103","2022-3-22","14:37:5","1","20","[""Asian""]","No","Female","933398","","","","","","","","","","","","","",""
"7026","","","instructions","10","118296","0.0-10.0","103","2022-3-22","14:37:5","1","20","[""Asian""]","No","Female","933398","","","","","","","[{""page_index"":0,""viewing_time"":4026},{""page_index"":1,""viewing_time"":3000}]","","","","","","",""
"4729","4","rating","canvas-keyboard-response","11","124040","0.0-11.0-0.0","103","2022-3-22","14:37:5","1","20","[""Asian""]","No","Female","933398","","","","","","","","136","57","113","17","25","0",""
"null","null","clear_screen","canvas-keyboard-response","12","124300","0.0-11.0-1.0","103","2022-3-22","14:37:5","1","20","[""Asian""]","No","Female","933398","","","","","","","","136","57","113","17","25","",""
"3280","2","rating","canvas-keyboard-response","13","127591","0.0-11.0-0.1","103","2022-3-22","14:37:5","1","20","[""Asian""]","No","Female","933398","","","","","","","","45","57","85","10","40","0",""
"null","null","clear_screen","canvas-keyboard-response","14","127850","0.0-11.0-1.1","103","2022-3-22","14:37:5","1","20","[""Asian""]","No","Female","933398","","","","","","","","45","57","85","10","40","",""
"1886","2","rating","canvas-keyboard-response","15","129751","0.0-11.0-0.2","103","2022-3-22","14:37:5","1","20","[""Asian""]","No","Female","933398","","","","","","","","67","85","85","10","40","1",""
"null","null","clear_screen","canvas-keyboard-response","16","130011","0.0-11.0-1.2","103","2022-3-22","14:37:5","1","20","[""Asian""]","No","Female","933398","","","","","","","","67","85","85","10","40","",""
"2497","7","rating","canvas-keyboard-response","17","132520","0.0-11.0-0.3","103","2022-3-22","14:37:5","1","20","[""Asian""]","No","Female","933398","","","","","","","","190","140","140","17","33","0",""
"null","null","clear_screen","canvas-keyboard-response","18","132779","0.0-11.0-1.3","103","2022-3-22","14:37:5","1","20","[""Asian""]","No","Female","933398","","","","","","","","190","140","140","17","33","",""
"2614","3","rating","canvas-keyboard-response","19","135408","0.0-11.0-0.4","103","2022-3-22","14:37:5","1","20","[""Asian""]","No","Female","933398","","","","","","","","247","140","57","25","33","1",""
"null","null","clear_screen","canvas-keyboard-response","20","135668","0.0-11.0-1.4","103","2022-3-22","14:37:5","1","20","[""Asian""]","No","Female","933398","","","","","","","","247","140","57","25","33","",""
"1257","1","rating","canvas-keyboard-response","21","136935","0.0-11.0-0.5","103","2022-3-22","14:37:5","1","20","[""Asian""]","No","Female","933398","","","","","","","","17","30","85","10","33","0",""
"null","null","clear_screen","canvas-keyboard-response","22","137194","0.0-11.0-1.5","103","2022-3-22","14:37:5","1","20","[""Asian""]","No","Female","933398","","","","","","","","17","30","85","10","33","",""
"1355","1","rating","canvas-keyboard-response","23","138560","0.0-11.0-0.6","103","2022-3-22","14:37:5","1","20","[""Asian""]","No","Female","933398","","","","","","","","119","30","140","17","25","0",""
"null","null","clear_screen","canvas-keyboard-response","24","138819","0.0-11.0-1.6","103","2022-3-22","14:37:5","1","20","[""Asian""]","No","Female","933398","","","","","","","","119","30","140","17","25","",""
"2686","8","rating","canvas-keyboard-response","25","141520","0.0-11.0-0.7","103","2022-3-22","14:37:5","1","20","[""Asian""]","No","Female","933398","","","","","","","","223","85","113","25","25","0",""
"null","null","clear_screen","canvas-keyboard-response","26","141780","0.0-11.0-1.7","103","2022-3-22","14:37:5","1","20","[""Asian""]","No","Female","933398","","","","","","","","223","85","113","25","25","",""
"3953","3","rating","canvas-keyboard-response","27","145743","0.0-11.0-0.8","103","2022-3-22","14:37:5","1","20","[""Asian""]","No","Female","933398","","","","","","","","142","57","140","17","33","1",""
"null","null","clear_screen","canvas-keyboard-response","28","146006","0.0-11.0-1.8","103","2022-3-22","14:37:5","1","20","[""Asian""]","No","Female","933398","","","","","","","","142","57","140","17","33","",""
"2534","6","rating","canvas-keyboard-response","29","148551","0.0-11.0-0.9","103","2022-3-22","14:37:5","1","20","[""Asian""]","No","Female","933398","","","","","","","","151","85","57","17","25","0",""
"null","null","clear_screen","canvas-keyboard-response","30","148813","0.0-11.0-1.9","103","2022-3-22","14:37:5","1","20","[""Asian""]","No","Female","933398","","","","","","","","151","85","57","17","25","",""
"2108","4","rating","canvas-keyboard-response","31","150936","0.0-11.0-0.10","103","2022-3-22","14:37:5","1","20","[""Asian""]","No","Female","933398","","","","","","","","88","113","85","10","40","1",""
"null","null","clear_screen","canvas-keyboard-response","32","151195","0.0-11.0-1.10","103","2022-3-22","14:37:5","1","20","[""Asian""]","No","Female","933398","","","","","","","","88","113","85","10","40","",""
"1441","2","rating","canvas-keyboard-response","33","152647","0.0-11.0-0.11","103","2022-3-22","14:37:5","1","20","[""Asian""]","No","Female","933398","","","","","","","","128","30","113","17","40","0",""
"null","null","clear_screen","canvas-keyboard-response","34","152908","0.0-11.0-1.11","103","2022-3-22","14:37:5","1","20","[""Asian""]","No","Female","933398","","","","","","","","128","30","113","17","40","",""
"1878","4","rating","canvas-keyboard-response","35","154799","0.0-11.0-0.12","103","2022-3-22","14:37:5","1","20","[""Asian""]","No","Female","933398","","","","","","","","201","30","57","25","33","1",""
"null","null","clear_screen","canvas-keyboard-response","36","155058","0.0-11.0-1.12","103","2022-3-22","14:37:5","1","20","[""Asian""]","No","Female","933398","","","","","","","","201","30","57","25","33","",""
"2851","5","rating","canvas-keyboard-response","37","157919","0.0-11.0-0.13","103","2022-3-22","14:37:5","1","20","[""Asian""]","No","Female","933398","","","","","","","","291","30","57","40","40","0",""
"null","null","clear_screen","canvas-keyboard-response","38","158181","0.0-11.0-1.13","103","2022-3-22","14:37:5","1","20","[""Asian""]","No","Female","933398","","","","","","","","291","30","57","40","40","",""
"2563","3","rating","canvas-keyboard-response","39","160759","0.0-11.0-0.14","103","2022-3-22","14:37:5","1","20","[""Asian""]","No","Female","933398","","","","","","","","39","57","57","10","33","1",""
"null","null","clear_screen","canvas-keyboard-response","40","161020","0.0-11.0-1.14","103","2022-3-22","14:37:5","1","20","[""Asian""]","No","Female","933398","","","","","","","","39","57","57","10","33","",""
"2022","6","rating","canvas-keyboard-response","41","163055","0.0-11.0-0.15","103","2022-3-22","14:37:5","1","20","[""Asian""]","No","Female","933398","","","","","","","","232","85","85","25","40","1",""
"null","null","clear_screen","canvas-keyboard-response","42","163315","0.0-11.0-1.15","103","2022-3-22","14:37:5","1","20","[""Asian""]","No","Female","933398","","","","","","","","232","85","85","25","40","",""
"4557","5","rating","canvas-keyboard-response","43","167879","0.0-11.0-0.16","103","2022-3-22","14:37:5","1","20","[""Asian""]","No","Female","933398","","","","","","","","163","85","113","17","40","0",""
"null","null","clear_screen","canvas-keyboard-response","44","168141","0.0-11.0-1.16","103","2022-3-22","14:37:5","1","20","[""Asian""]","No","Female","933398","","","","","","","","163","85","113","17","40","",""
"1644","2","rating","canvas-keyboard-response","45","169799","0.0-11.0-0.17","103","2022-3-22","14:37:5","1","20","[""Asian""]","No","Female","933398","","","","","","","","122","30","85","17","33","1",""
"null","null","clear_screen","canvas-keyboard-response","46","170058","0.0-11.0-1.17","103","2022-3-22","14:37:5","1","20","[""Asian""]","No","Female","933398","","","","","","","","122","30","85","17","33","",""
"1814","3","rating","canvas-keyboard-response","47","171887","0.0-11.0-0.18","103","2022-3-22","14:37:5","1","20","[""Asian""]","No","Female","933398","","","","","","","","20","30","30","10","40","0",""
"null","null","clear_screen","canvas-keyboard-response","48","172147","0.0-11.0-1.18","103","2022-3-22","14:37:5","1","20","[""Asian""]","No","Female","933398","","","","","","","","20","30","30","10","40","",""
"1689","4","rating","canvas-keyboard-response","49","173847","0.0-11.0-0.19","103","2022-3-22","14:37:5","1","20","[""Asian""]","No","Female","933398","","","","","","","","282","113","57","33","40","0",""
"null","null","clear_screen","canvas-keyboard-response","50","174109","0.0-11.0-1.19","103","2022-3-22","14:37:5","1","20","[""Asian""]","No","Female","933398","","","","","","","","282","113","57","33","40","",""
"1643","3","rating","canvas-keyboard-response","51","175767","0.0-11.0-0.20","103","2022-3-22","14:37:5","1","20","[""Asian""]","No","Female","933398","","","","","","","","202","30","85","25","33","1",""
"null","null","clear_screen","canvas-keyboard-response","52","176031","0.0-11.0-1.20","103","2022-3-22","14:37:5","1","20","[""Asian""]","No","Female","933398","","","","","","","","202","30","85","25","33","",""
"1562","1","rating","canvas-keyboard-response","53","177608","0.0-11.0-0.21","103","2022-3-22","14:37:5","1","20","[""Asian""]","No","Female","933398","","","","","","","","199","30","140","25","25","1",""
"null","null","clear_screen","canvas-keyboard-response","54","177869","0.0-11.0-1.21","103","2022-3-22","14:37:5","1","20","[""Asian""]","No","Female","933398","","","","","","","","199","30","140","25","25","",""
"2184","5","rating","canvas-keyboard-response","55","180063","0.0-11.0-0.22","103","2022-3-22","14:37:5","1","20","[""Asian""]","No","Female","933398","","","","","","","","228","85","113","25","33","1",""
"null","null","clear_screen","canvas-keyboard-response","56","180324","0.0-11.0-1.22","103","2022-3-22","14:37:5","1","20","[""Asian""]","No","Female","933398","","","","","","","","228","85","113","25","33","",""
"2265","5","rating","canvas-keyboard-response","57","182599","0.0-11.0-0.23","103","2022-3-22","14:37:5","1","20","[""Asian""]","No","Female","933398","","","","","","","","73","113","85","10","17","0",""
"null","null","clear_screen","canvas-keyboard-response","58","182863","0.0-11.0-1.23","103","2022-3-22","14:37:5","1","20","[""Asian""]","No","Female","933398","","","","","","","","73","113","85","10","17","",""
"2369","4","rating","canvas-keyboard-response","59","185247","0.0-11.0-0.24","103","2022-3-22","14:37:5","1","20","[""Asian""]","No","Female","933398","","","","","","","","30","57","85","10","17","0",""
"null","null","clear_screen","canvas-keyboard-response","60","185508","0.0-11.0-1.24","103","2022-3-22","14:37:5","1","20","[""Asian""]","No","Female","933398","","","","","","","","30","57","85","10","17","",""
"1345","1","rating","canvas-keyboard-response","61","186863","0.0-11.0-0.25","103","2022-3-22","14:37:5","1","20","[""Asian""]","No","Female","933398","","","","","","","","92","140","57","10","17","1",""
"null","null","clear_screen","canvas-keyboard-response","62","187124","0.0-11.0-1.25","103","2022-3-22","14:37:5","1","20","[""Asian""]","No","Female","933398","","","","","","","","92","140","57","10","17","",""
"4081","5","rating","canvas-keyboard-response","63","191216","0.0-11.0-0.26","103","2022-3-22","14:37:5","1","20","[""Asian""]","No","Female","933398","","","","","","","","179","113","113","17","40","1",""
"null","null","clear_screen","canvas-keyboard-response","64","191475","0.0-11.0-1.26","103","2022-3-22","14:37:5","1","20","[""Asian""]","No","Female","933398","","","","","","","","179","113","113","17","40","",""
"1456","2","rating","canvas-keyboard-response","65","192943","0.0-11.0-0.27","103","2022-3-22","14:37:5","1","20","[""Asian""]","No","Female","933398","","","","","","","","294","30","140","40","40","1",""
"null","null","clear_screen","canvas-keyboard-response","66","193203","0.0-11.0-1.27","103","2022-3-22","14:37:5","1","20","[""Asian""]","No","Female","933398","","","","","","","","294","30","140","40","40","",""
"2053","3","rating","canvas-keyboard-response","67","195270","0.0-11.0-0.28","103","2022-3-22","14:37:5","1","20","[""Asian""]","No","Female","933398","","","","","","","","85","113","140","10","33","0",""
"null","null","clear_screen","canvas-keyboard-response","68","195533","0.0-11.0-1.28","103","2022-3-22","14:37:5","1","20","[""Asian""]","No","Female","933398","","","","","","","","85","113","140","10","33","",""
"3520","2","rating","canvas-keyboard-response","69","199062","0.0-11.0-0.29","103","2022-3-22","14:37:5","1","20","[""Asian""]","No","Female","933398","","","","","","","","82","113","57","10","33","0",""
"null","null","clear_screen","canvas-keyboard-response","70","199322","0.0-11.0-1.29","103","2022-3-22","14:37:5","1","20","[""Asian""]","No","Female","933398","","","","","","","","82","113","57","10","33","",""
"2027","2","rating","canvas-keyboard-response","71","201358","0.0-11.0-0.30","103","2022-3-22","14:37:5","1","20","[""Asian""]","No","Female","933398","","","","","","","","288","140","85","33","40","1",""
"null","null","clear_screen","canvas-keyboard-response","72","201619","0.0-11.0-1.30","103","2022-3-22","14:37:5","1","20","[""Asian""]","No","Female","933398","","","","","","","","288","140","85","33","40","",""
"1270","1","rating","canvas-keyboard-response","73","202903","0.0-11.0-0.31","103","2022-3-22","14:37:5","1","20","[""Asian""]","No","Female","933398","","","","","","","","96","140","30","10","25","0",""
"null","null","clear_screen","canvas-keyboard-response","74","203167","0.0-11.0-1.31","103","2022-3-22","14:37:5","1","20","[""Asian""]","No","Female","933398","","","","","","","","96","140","30","10","25","",""
"1582","3","rating","canvas-keyboard-response","75","204759","0.0-11.0-0.32","103","2022-3-22","14:37:5","1","20","[""Asian""]","No","Female","933398","","","","","","","","141","57","113","17","33","0",""
"null","null","clear_screen","canvas-keyboard-response","76","205020","0.0-11.0-1.32","103","2022-3-22","14:37:5","1","20","[""Asian""]","No","Female","933398","","","","","","","","141","57","113","17","33","",""
"1319","3","rating","canvas-keyboard-response","77","206351","0.0-11.0-0.33","103","2022-3-22","14:37:5","1","20","[""Asian""]","No","Female","933398","","","","","","","","147","57","140","17","40","1",""
"null","null","clear_screen","canvas-keyboard-response","78","206612","0.0-11.0-1.33","103","2022-3-22","14:37:5","1","20","[""Asian""]","No","Female","933398","","","","","","","","147","57","140","17","40","",""
"1031","1","rating","canvas-keyboard-response","79","207655","0.0-11.0-0.34","103","2022-3-22","14:37:5","1","20","[""Asian""]","No","Female","933398","","","","","","","","114","30","140","17","17","1",""
"null","null","clear_screen","canvas-keyboard-response","80","207915","0.0-11.0-1.34","103","2022-3-22","14:37:5","1","20","[""Asian""]","No","Female","933398","","","","","","","","114","30","140","17","17","",""
"1328","2","rating","canvas-keyboard-response","81","209256","0.0-11.0-0.35","103","2022-3-22","14:37:5","1","20","[""Asian""]","No","Female","933398","","","","","","","","47","57","140","10","40","0",""
"null","null","clear_screen","canvas-keyboard-response","82","209516","0.0-11.0-1.35","103","2022-3-22","14:37:5","1","20","[""Asian""]","No","Female","933398","","","","","","","","47","57","140","10","40","",""
"1049","1","rating","canvas-keyboard-response","83","210575","0.0-11.0-0.36","103","2022-3-22","14:37:5","1","20","[""Asian""]","No","Female","933398","","","","","","","","4","30","140","10","10","0",""
"null","null","clear_screen","canvas-keyboard-response","84","210833","0.0-11.0-1.36","103","2022-3-22","14:37:5","1","20","[""Asian""]","No","Female","933398","","","","","","","","4","30","140","10","10","",""
"1297","4","rating","canvas-keyboard-response","85","212141","0.0-11.0-0.37","103","2022-3-22","14:37:5","1","20","[""Asian""]","No","Female","933398","","","","","","","","164","85","140","17","40","1",""
"null","null","clear_screen","canvas-keyboard-response","86","212398","0.0-11.0-1.37","103","2022-3-22","14:37:5","1","20","[""Asian""]","No","Female","933398","","","","","","","","164","85","140","17","40","",""
"1989","4","rating","canvas-keyboard-response","87","214399","0.0-11.0-0.38","103","2022-3-22","14:37:5","1","20","[""Asian""]","No","Female","933398","","","","","","","","230","85","30","25","40","1",""
"null","null","clear_screen","canvas-keyboard-response","88","214659","0.0-11.0-1.38","103","2022-3-22","14:37:5","1","20","[""Asian""]","No","Female","933398","","","","","","","","230","85","30","25","40","",""
"1254","5","rating","canvas-keyboard-response","89","215928","0.0-11.0-0.39","103","2022-3-22","14:37:5","1","20","[""Asian""]","No","Female","933398","","","","","","","","66","85","57","10","40","1",""
"null","null","clear_screen","canvas-keyboard-response","90","216188","0.0-11.0-1.39","103","2022-3-22","14:37:5","1","20","[""Asian""]","No","Female","933398","","","","","","","","66","85","57","10","40","",""
"1828","3","rating","canvas-keyboard-response","91","218030","0.0-11.0-0.40","103","2022-3-22","14:37:5","1","20","[""Asian""]","No","Female","933398","","","","","","","","237","113","57","25","33","0",""
"null","null","clear_screen","canvas-keyboard-response","92","218288","0.0-11.0-1.40","103","2022-3-22","14:37:5","1","20","[""Asian""]","No","Female","933398","","","","","","","","237","113","57","25","33","",""
"1449","3","rating","canvas-keyboard-response","93","219750","0.0-11.0-0.41","103","2022-3-22","14:37:5","1","20","[""Asian""]","No","Female","933398","","","","","","","","35","57","85","10","25","0",""
"null","null","clear_screen","canvas-keyboard-response","94","220010","0.0-11.0-1.41","103","2022-3-22","14:37:5","1","20","[""Asian""]","No","Female","933398","","","","","","","","35","57","85","10","25","",""
"1315","2","rating","canvas-keyboard-response","95","221335","0.0-11.0-0.42","103","2022-3-22","14:37:5","1","20","[""Asian""]","No","Female","933398","","","","","","","","225","85","30","25","33","0",""
"null","null","clear_screen","canvas-keyboard-response","96","221596","0.0-11.0-1.42","103","2022-3-22","14:37:5","1","20","[""Asian""]","No","Female","933398","","","","","","","","225","85","30","25","33","",""
"4070","9","rating","canvas-keyboard-response","97","225679","0.0-11.0-0.43","103","2022-3-22","14:37:5","1","20","[""Asian""]","No","Female","933398","","","","","","","","100","140","140","10","25","0",""
"null","null","clear_screen","canvas-keyboard-response","98","225940","0.0-11.0-1.43","103","2022-3-22","14:37:5","1","20","[""Asian""]","No","Female","933398","","","","","","","","100","140","140","10","25","",""
"2632","3","rating","canvas-keyboard-response","99","228583","0.0-11.0-0.44","103","2022-3-22","14:37:5","1","20","[""Asian""]","No","Female","933398","","","","","","","","241","113","30","25","40","0",""
"null","null","clear_screen","canvas-keyboard-response","100","228842","0.0-11.0-1.44","103","2022-3-22","14:37:5","1","20","[""Asian""]","No","Female","933398","","","","","","","","241","113","30","25","40","",""
"2161","7","rating","canvas-keyboard-response","101","231015","0.0-11.0-0.45","103","2022-3-22","14:37:5","1","20","[""Asian""]","No","Female","933398","","","","","","","","105","140","140","10","33","1",""
"null","null","clear_screen","canvas-keyboard-response","102","231278","0.0-11.0-1.45","103","2022-3-22","14:37:5","1","20","[""Asian""]","No","Female","933398","","","","","","","","105","140","140","10","33","",""
"2110","6","rating","canvas-keyboard-response","103","233399","0.0-11.0-0.46","103","2022-3-22","14:37:5","1","20","[""Asian""]","No","Female","933398","","","","","","","","213","57","30","25","33","1",""
"null","null","clear_screen","canvas-keyboard-response","104","233660","0.0-11.0-1.46","103","2022-3-22","14:37:5","1","20","[""Asian""]","No","Female","933398","","","","","","","","213","57","30","25","33","",""
"2758","6","rating","canvas-keyboard-response","105","236431","0.0-11.0-0.47","103","2022-3-22","14:37:5","1","20","[""Asian""]","No","Female","933398","","","","","","","","110","140","140","10","40","1",""
"null","null","clear_screen","canvas-keyboard-response","106","236692","0.0-11.0-1.47","103","2022-3-22","14:37:5","1","20","[""Asian""]","No","Female","933398","","","","","","","","110","140","140","10","40","",""
"1207","4","rating","canvas-keyboard-response","107","237911","0.0-11.0-0.48","103","2022-3-22","14:37:5","1","20","[""Asian""]","No","Female","933398","","","","","","","","26","57","113","10","10","0",""
"null","null","clear_screen","canvas-keyboard-response","108","238173","0.0-11.0-1.48","103","2022-3-22","14:37:5","1","20","[""Asian""]","No","Female","933398","","","","","","","","26","57","113","10","10","",""
"1468","5","rating","canvas-keyboard-response","109","239655","0.0-11.0-0.49","103","2022-3-22","14:37:5","1","20","[""Asian""]","No","Female","933398","","","","","","","","180","113","140","17","40","1",""
"null","null","clear_screen","canvas-keyboard-response","110","239916","0.0-11.0-1.49","103","2022-3-22","14:37:5","1","20","[""Asian""]","No","Female","933398","","","","","","","","180","113","140","17","40","",""
"1240","4","rating","canvas-keyboard-response","111","241166","0.0-11.0-0.50","103","2022-3-22","14:37:5","1","20","[""Asian""]","No","Female","933398","","","","","","","","189","140","113","17","33","1",""
"null","null","clear_screen","canvas-keyboard-response","112","241430","0.0-11.0-1.50","103","2022-3-22","14:37:5","1","20","[""Asian""]","No","Female","933398","","","","","","","","189","140","113","17","33","",""
"1142","3","rating","canvas-keyboard-response","113","242583","0.0-11.0-0.51","103","2022-3-22","14:37:5","1","20","[""Asian""]","No","Female","933398","","","","","","","","2","30","85","10","10","1",""
"null","null","clear_screen","canvas-keyboard-response","114","242844","0.0-11.0-1.51","103","2022-3-22","14:37:5","1","20","[""Asian""]","No","Female","933398","","","","","","","","2","30","85","10","10","",""
"1475","1","rating","canvas-keyboard-response","115","244335","0.0-11.0-0.52","103","2022-3-22","14:37:5","1","20","[""Asian""]","No","Female","933398","","","","","","","","101","140","30","10","33","1",""
"null","null","clear_screen","canvas-keyboard-response","116","244596","0.0-11.0-1.52","103","2022-3-22","14:37:5","1","20","[""Asian""]","No","Female","933398","","","","","","","","101","140","30","10","33","",""
"3936","5","rating","canvas-keyboard-response","117","248543","0.0-11.0-0.53","103","2022-3-22","14:37:5","1","20","[""Asian""]","No","Female","933398","","","","","","","","162","85","85","17","40","0",""
"null","null","clear_screen","canvas-keyboard-response","118","248803","0.0-11.0-1.53","103","2022-3-22","14:37:5","1","20","[""Asian""]","No","Female","933398","","","","","","","","162","85","85","17","40","",""
"1305","4","rating","canvas-keyboard-response","119","250119","0.0-11.0-0.54","103","2022-3-22","14:37:5","1","20","[""Asian""]","No","Female","933398","","","","","","","","193","140","85","17","40","0",""
"null","null","clear_screen","canvas-keyboard-response","120","250380","0.0-11.0-1.54","103","2022-3-22","14:37:5","1","20","[""Asian""]","No","Female","933398","","","","","","","","193","140","85","17","40","",""
"1093","3","rating","canvas-keyboard-response","121","251487","0.0-11.0-0.55","103","2022-3-22","14:37:5","1","20","[""Asian""]","No","Female","933398","","","","","","","","32","57","140","10","17","1",""
"null","null","clear_screen","canvas-keyboard-response","122","251746","0.0-11.0-1.55","103","2022-3-22","14:37:5","1","20","[""Asian""]","No","Female","933398","","","","","","","","32","57","140","10","17","",""
"2763","4","rating","canvas-keyboard-response","123","254520","0.0-11.0-0.56","103","2022-3-22","14:37:5","1","20","[""Asian""]","No","Female","933398","","","","","","","","61","85","57","10","33","0",""
"null","null","clear_screen","canvas-keyboard-response","124","254778","0.0-11.0-1.56","103","2022-3-22","14:37:5","1","20","[""Asian""]","No","Female","933398","","","","","","","","61","85","57","10","33","",""
"1158","3","rating","canvas-keyboard-response","125","255951","0.0-11.0-0.57","103","2022-3-22","14:37:5","1","20","[""Asian""]","No","Female","933398","","","","","","","","107","140","57","10","40","0",""
"null","null","clear_screen","canvas-keyboard-response","126","256213","0.0-11.0-1.57","103","2022-3-22","14:37:5","1","20","[""Asian""]","No","Female","933398","","","","","","","","107","140","57","10","40","",""
"1628","6","rating","canvas-keyboard-response","127","257855","0.0-11.0-0.58","103","2022-3-22","14:37:5","1","20","[""Asian""]","No","Female","933398","","","","","","","","250","140","140","25","33","1",""
"null","null","clear_screen","canvas-keyboard-response","128","258118","0.0-11.0-1.58","103","2022-3-22","14:37:5","1","20","[""Asian""]","No","Female","933398","","","","","","","","250","140","140","25","33","",""
"1370","1","rating","canvas-keyboard-response","129","259503","0.0-11.0-0.59","103","2022-3-22","14:37:5","1","20","[""Asian""]","No","Female","933398","","","","","","","","86","113","30","10","40","1",""
"null","null","clear_screen","canvas-keyboard-response","130","259762","0.0-11.0-1.59","103","2022-3-22","14:37:5","1","20","[""Asian""]","No","Female","933398","","","","","","","","86","113","30","10","40","",""
"1790","4","rating","canvas-keyboard-response","131","261567","0.0-11.0-0.60","103","2022-3-22","14:37:5","1","20","[""Asian""]","No","Female","933398","","","","","","","","235","113","140","25","25","0",""
"null","null","clear_screen","canvas-keyboard-response","132","261828","0.0-11.0-1.60","103","2022-3-22","14:37:5","1","20","[""Asian""]","No","Female","933398","","","","","","","","235","113","140","25","25","",""
"1937","5","rating","canvas-keyboard-response","133","263775","0.0-11.0-0.61","103","2022-3-22","14:37:5","1","20","[""Asian""]","No","Female","933398","","","","","","","","156","85","57","17","33","1",""
"null","null","clear_screen","canvas-keyboard-response","134","264035","0.0-11.0-1.61","103","2022-3-22","14:37:5","1","20","[""Asian""]","No","Female","933398","","","","","","","","156","85","57","17","33","",""
"1096","3","rating","canvas-keyboard-response","135","265143","0.0-11.0-0.62","103","2022-3-22","14:37:5","1","20","[""Asian""]","No","Female","933398","","","","","","","","209","30","140","25","40","1",""
"null","null","clear_screen","canvas-keyboard-response","136","265405","0.0-11.0-1.62","103","2022-3-22","14:37:5","1","20","[""Asian""]","No","Female","933398","","","","","","","","209","30","140","25","40","",""
"1119","4","rating","canvas-keyboard-response","137","266535","0.0-11.0-0.63","103","2022-3-22","14:37:5","1","20","[""Asian""]","No","Female","933398","","","","","","","","249","140","113","25","33","0",""
"null","null","clear_screen","canvas-keyboard-response","138","266796","0.0-11.0-1.63","103","2022-3-22","14:37:5","1","20","[""Asian""]","No","Female","933398","","","","","","","","249","140","113","25","33","",""
"1825","5","rating","canvas-keyboard-response","139","268631","0.0-11.0-0.64","103","2022-3-22","14:37:5","1","20","[""Asian""]","No","Female","933398","","","","","","","","300","113","140","40","40","1",""
"null","null","clear_screen","canvas-keyboard-response","140","268890","0.0-11.0-1.64","103","2022-3-22","14:37:5","1","20","[""Asian""]","No","Female","933398","","","","","","","","300","113","140","40","40","",""
"11446","3","rating","canvas-keyboard-response","141","280351","0.0-11.0-0.65","103","2022-3-22","14:37:5","1","20","[""Asian""]","No","Female","933398","","","","","","","","37","57","140","10","25","1",""
"null","null","clear_screen","canvas-keyboard-response","142","280613","0.0-11.0-1.65","103","2022-3-22","14:37:5","1","20","[""Asian""]","No","Female","933398","","","","","","","","37","57","140","10","25","",""
"2261","4","rating","canvas-keyboard-response","143","282888","0.0-11.0-0.66","103","2022-3-22","14:37:5","1","20","[""Asian""]","No","Female","933398","","","","","","","","131","57","113","17","17","1",""
"null","null","clear_screen","canvas-keyboard-response","144","283148","0.0-11.0-1.66","103","2022-3-22","14:37:5","1","20","[""Asian""]","No","Female","933398","","","","","","","","131","57","113","17","17","",""
"2981","5","rating","canvas-keyboard-response","145","286142","0.0-11.0-0.67","103","2022-3-22","14:37:5","1","20","[""Asian""]","No","Female","933398","","","","","","","","6","30","57","10","17","0",""
"null","null","clear_screen","canvas-keyboard-response","146","286402","0.0-11.0-1.67","103","2022-3-22","14:37:5","1","20","[""Asian""]","No","Female","933398","","","","","","","","6","30","57","10","17","",""
"1743","5","rating","canvas-keyboard-response","147","288159","0.0-11.0-0.68","103","2022-3-22","14:37:5","1","20","[""Asian""]","No","Female","933398","","","","","","","","245","113","140","25","40","0",""
"null","null","clear_screen","canvas-keyboard-response","148","288420","0.0-11.0-1.68","103","2022-3-22","14:37:5","1","20","[""Asian""]","No","Female","933398","","","","","","","","245","113","140","25","40","",""
"2457","4","rating","canvas-keyboard-response","149","290887","0.0-11.0-0.69","103","2022-3-22","14:37:5","1","20","[""Asian""]","No","Female","933398","","","","","","","","148","85","113","17","17","0",""
"null","null","clear_screen","canvas-keyboard-response","150","291148","0.0-11.0-1.69","103","2022-3-22","14:37:5","1","20","[""Asian""]","No","Female","933398","","","","","","","","148","85","113","17","17","",""
"3025","4","rating","canvas-keyboard-response","151","294182","0.0-11.0-0.70","103","2022-3-22","14:37:5","1","20","[""Asian""]","No","Female","933398","","","","","","","","182","140","57","17","25","0",""
"null","null","clear_screen","canvas-keyboard-response","152","294444","0.0-11.0-1.70","103","2022-3-22","14:37:5","1","20","[""Asian""]","No","Female","933398","","","","","","","","182","140","57","17","25","",""
"2409","5","rating","canvas-keyboard-response","153","296864","0.0-11.0-0.71","103","2022-3-22","14:37:5","1","20","[""Asian""]","No","Female","933398","","","","","","","","1","30","57","10","10","0",""
"null","null","clear_screen","canvas-keyboard-response","154","297126","0.0-11.0-1.71","103","2022-3-22","14:37:5","1","20","[""Asian""]","No","Female","933398","","","","","","","","1","30","57","10","10","",""
"1445","2","rating","canvas-keyboard-response","155","298583","0.0-11.0-0.72","103","2022-3-22","14:37:5","1","20","[""Asian""]","No","Female","933398","","","","","","","","129","30","140","17","40","0",""
"null","null","clear_screen","canvas-keyboard-response","156","298842","0.0-11.0-1.72","103","2022-3-22","14:37:5","1","20","[""Asian""]","No","Female","933398","","","","","","","","129","30","140","17","40","",""
"1631","4","rating","canvas-keyboard-response","157","300488","0.0-11.0-0.73","103","2022-3-22","14:37:5","1","20","[""Asian""]","No","Female","933398","","","","","","","","68","85","113","10","40","1",""
"null","null","clear_screen","canvas-keyboard-response","158","300748","0.0-11.0-1.73","103","2022-3-22","14:37:5","1","20","[""Asian""]","No","Female","933398","","","","","","","","68","85","113","10","40","",""
"1153","3","rating","canvas-keyboard-response","159","301912","0.0-11.0-0.74","103","2022-3-22","14:37:5","1","20","[""Asian""]","No","Female","933398","","","","","","","","55","85","30","10","25","0",""
"null","null","clear_screen","canvas-keyboard-response","160","302172","0.0-11.0-1.74","103","2022-3-22","14:37:5","1","20","[""Asian""]","No","Female","933398","","","","","","","","55","85","30","10","25","",""
"1080","2","rating","canvas-keyboard-response","161","303263","0.0-11.0-0.75","103","2022-3-22","14:37:5","1","20","[""Asian""]","No","Female","933398","","","","","","","","13","30","113","10","25","0",""
"null","null","clear_screen","canvas-keyboard-response","162","303523","0.0-11.0-1.75","103","2022-3-22","14:37:5","1","20","[""Asian""]","No","Female","933398","","","","","","","","13","30","113","10","25","",""
"1474","5","rating","canvas-keyboard-response","163","305007","0.0-11.0-0.76","103","2022-3-22","14:37:5","1","20","[""Asian""]","No","Female","933398","","","","","","","","170","113","140","17","25","1",""
"null","null","clear_screen","canvas-keyboard-response","164","305267","0.0-11.0-1.76","103","2022-3-22","14:37:5","1","20","[""Asian""]","No","Female","933398","","","","","","","","170","113","140","17","25","",""
"1176","4","rating","canvas-keyboard-response","165","306456","0.0-11.0-0.77","103","2022-3-22","14:37:5","1","20","[""Asian""]","No","Female","933398","","","","","","","","248","140","85","25","33","1",""
"null","null","clear_screen","canvas-keyboard-response","166","306715","0.0-11.0-1.77","103","2022-3-22","14:37:5","1","20","[""Asian""]","No","Female","933398","","","","","","","","248","140","85","25","33","",""
"1142","3","rating","canvas-keyboard-response","167","307872","0.0-11.0-0.78","103","2022-3-22","14:37:5","1","20","[""Asian""]","No","Female","933398","","","","","","","","50","85","30","10","17","1",""
"null","null","clear_screen","canvas-keyboard-response","168","308133","0.0-11.0-1.78","103","2022-3-22","14:37:5","1","20","[""Asian""]","No","Female","933398","","","","","","","","50","85","30","10","17","",""
"2526","5","rating","canvas-keyboard-response","169","310671","0.0-11.0-0.79","103","2022-3-22","14:37:5","1","20","[""Asian""]","No","Female","933398","","","","","","","","268","57","30","33","40","0",""
"null","null","clear_screen","canvas-keyboard-response","170","310931","0.0-11.0-1.79","103","2022-3-22","14:37:5","1","20","[""Asian""]","No","Female","933398","","","","","","","","268","57","30","33","40","",""
"1333","4","rating","canvas-keyboard-response","171","312279","0.0-11.0-0.80","103","2022-3-22","14:37:5","1","20","[""Asian""]","No","Female","933398","","","","","","","","242","113","57","25","40","1",""
"null","null","clear_screen","canvas-keyboard-response","172","312539","0.0-11.0-1.80","103","2022-3-22","14:37:5","1","20","[""Asian""]","No","Female","933398","","","","","","","","242","113","57","25","40","",""
"1105","4","rating","canvas-keyboard-response","173","313656","0.0-11.0-0.81","103","2022-3-22","14:37:5","1","20","[""Asian""]","No","Female","933398","","","","","","","","216","57","113","25","33","0",""
"null","null","clear_screen","canvas-keyboard-response","174","313916","0.0-11.0-1.81","103","2022-3-22","14:37:5","1","20","[""Asian""]","No","Female","933398","","","","","","","","216","57","113","25","33","",""
"3526","9","rating","canvas-keyboard-response","175","317455","0.0-11.0-0.82","103","2022-3-22","14:37:5","1","20","[""Asian""]","No","Female","933398","","","","","","","","52","85","85","10","17","0",""
"null","null","clear_screen","canvas-keyboard-response","176","317715","0.0-11.0-1.82","103","2022-3-22","14:37:5","1","20","[""Asian""]","No","Female","933398","","","","","","","","52","85","85","10","17","",""
"2815","5","rating","canvas-keyboard-response","177","320544","0.0-11.0-0.83","103","2022-3-22","14:37:5","1","20","[""Asian""]","No","Female","933398","","","","","","","","297","57","140","40","40","1",""
"null","null","clear_screen","canvas-keyboard-response","178","320806","0.0-11.0-1.83","103","2022-3-22","14:37:5","1","20","[""Asian""]","No","Female","933398","","","","","","","","297","57","140","40","40","",""
"1948","6","rating","canvas-keyboard-response","179","322768","0.0-11.0-0.84","103","2022-3-22","14:37:5","1","20","[""Asian""]","No","Female","933398","","","","","","","","143","57","30","17","40","1",""
"null","null","clear_screen","canvas-keyboard-response","180","323028","0.0-11.0-1.84","103","2022-3-22","14:37:5","1","20","[""Asian""]","No","Female","933398","","","","","","","","143","57","30","17","40","",""
"1167","5","rating","canvas-keyboard-response","181","324208","0.0-11.0-0.85","103","2022-3-22","14:37:5","1","20","[""Asian""]","No","Female","933398","","","","","","","","149","85","140","17","17","0",""
"null","null","clear_screen","canvas-keyboard-response","182","324467","0.0-11.0-1.85","103","2022-3-22","14:37:5","1","20","[""Asian""]","No","Female","933398","","","","","","","","149","85","140","17","17","",""
"1806","7","rating","canvas-keyboard-response","183","326288","0.0-11.0-0.86","103","2022-3-22","14:37:5","1","20","[""Asian""]","No","Female","933398","","","","","","","","139","57","57","17","33","1",""
"null","null","clear_screen","canvas-keyboard-response","184","326550","0.0-11.0-1.86","103","2022-3-22","14:37:5","1","20","[""Asian""]","No","Female","933398","","","","","","","","139","57","57","17","33","",""
"5195","4","rating","canvas-keyboard-response","185","331760","0.0-11.0-0.87","103","2022-3-22","14:37:5","1","20","[""Asian""]","No","Female","933398","","","","","","","","102","140","57","10","33","1",""
"null","null","clear_screen","canvas-keyboard-response","186","332021","0.0-11.0-1.87","103","2022-3-22","14:37:5","1","20","[""Asian""]","No","Female","933398","","","","","","","","102","140","57","10","33","",""
"1959","4","rating","canvas-keyboard-response","187","333992","0.0-11.0-0.88","103","2022-3-22","14:37:5","1","20","[""Asian""]","No","Female","933398","","","","","","","","108","140","85","10","40","1",""
"null","null","clear_screen","canvas-keyboard-response","188","334253","0.0-11.0-1.88","103","2022-3-22","14:37:5","1","20","[""Asian""]","No","Female","933398","","","","","","","","108","140","85","10","40","",""
"1180","4","rating","canvas-keyboard-response","189","335447","0.0-11.0-0.89","103","2022-3-22","14:37:5","1","20","[""Asian""]","No","Female","933398","","","","","","","","299","85","140","40","40","0",""
"null","null","clear_screen","canvas-keyboard-response","190","335706","0.0-11.0-1.89","103","2022-3-22","14:37:5","1","20","[""Asian""]","No","Female","933398","","","","","","","","299","85","140","40","40","",""
"1009","3","rating","canvas-keyboard-response","191","336727","0.0-11.0-0.90","103","2022-3-22","14:37:5","1","20","[""Asian""]","No","Female","933398","","","","","","","","271","57","113","33","40","1",""
"null","null","clear_screen","canvas-keyboard-response","192","336988","0.0-11.0-1.90","103","2022-3-22","14:37:5","1","20","[""Asian""]","No","Female","933398","","","","","","","","271","57","113","33","40","",""
"1070","2","rating","canvas-keyboard-response","193","338071","0.0-11.0-0.91","103","2022-3-22","14:37:5","1","20","[""Asian""]","No","Female","933398","","","","","","","","132","57","140","17","17","0",""
"null","null","clear_screen","canvas-keyboard-response","194","338330","0.0-11.0-1.91","103","2022-3-22","14:37:5","1","20","[""Asian""]","No","Female","933398","","","","","","","","132","57","140","17","17","",""
"2073","7","rating","canvas-keyboard-response","195","340415","0.0-11.0-0.92","103","2022-3-22","14:37:5","1","20","[""Asian""]","No","Female","933398","","","","","","","","79","113","113","10","25","1",""
"null","null","clear_screen","canvas-keyboard-response","196","340674","0.0-11.0-1.92","103","2022-3-22","14:37:5","1","20","[""Asian""]","No","Female","933398","","","","","","","","79","113","113","10","25","",""
"1434","2","rating","canvas-keyboard-response","197","342120","0.0-11.0-0.93","103","2022-3-22","14:37:5","1","20","[""Asian""]","No","Female","933398","","","","","","","","176","113","30","17","40","1",""
"null","null","clear_screen","canvas-keyboard-response","198","342383","0.0-11.0-1.93","103","2022-3-22","14:37:5","1","20","[""Asian""]","No","Female","933398","","","","","","","","176","113","30","17","40","",""
"1554","5","rating","canvas-keyboard-response","199","343951","0.0-11.0-0.94","103","2022-3-22","14:37:5","1","20","[""Asian""]","No","Female","933398","","","","","","","","53","85","113","10","17","1",""
"null","null","clear_screen","canvas-keyboard-response","200","344212","0.0-11.0-1.94","103","2022-3-22","14:37:5","1","20","[""Asian""]","No","Female","933398","","","","","","","","53","85","113","10","17","",""
"1492","1","rating","canvas-keyboard-response","201","345720","0.0-11.0-0.95","103","2022-3-22","14:37:5","1","20","[""Asian""]","No","Female","933398","","","","","","","","3","30","113","10","10","0",""
"null","null","clear_screen","canvas-keyboard-response","202","345980","0.0-11.0-1.95","103","2022-3-22","14:37:5","1","20","[""Asian""]","No","Female","933398","","","","","","","","3","30","113","10","10","",""
"3169","8","rating","canvas-keyboard-response","203","349160","0.0-11.0-0.96","103","2022-3-22","14:37:5","1","20","[""Asian""]","No","Female","933398","","","","","","","","255","140","140","25","40","0",""
"null","null","clear_screen","canvas-keyboard-response","204","349419","0.0-11.0-1.96","103","2022-3-22","14:37:5","1","20","[""Asian""]","No","Female","933398","","","","","","","","255","140","140","25","40","",""
"18121","2","rating","canvas-keyboard-response","205","367551","0.0-11.0-0.97","103","2022-3-22","14:37:5","1","20","[""Asian""]","No","Female","933398","","","","","","","","71","113","30","10","17","0",""
"null","null","clear_screen","canvas-keyboard-response","206","367811","0.0-11.0-1.97","103","2022-3-22","14:37:5","1","20","[""Asian""]","No","Female","933398","","","","","","","","71","113","30","10","17","",""
"1626","7","rating","canvas-keyboard-response","207","369447","0.0-11.0-0.98","103","2022-3-22","14:37:5","1","20","[""Asian""]","No","Female","933398","","","","","","","","99","140","113","10","25","0",""
"null","null","clear_screen","canvas-keyboard-response","208","369711","0.0-11.0-1.98","103","2022-3-22","14:37:5","1","20","[""Asian""]","No","Female","933398","","","","","","","","99","140","113","10","25","",""
"3926","2","rating","canvas-keyboard-response","209","373647","0.0-11.0-0.99","103","2022-3-22","14:37:5","1","20","[""Asian""]","No","Female","933398","","","","","","","","113","30","113","17","17","0",""
"null","null","clear_screen","canvas-keyboard-response","210","373906","0.0-11.0-1.99","103","2022-3-22","14:37:5","1","20","[""Asian""]","No","Female","933398","","","","","","","","113","30","113","17","17","",""
"2392","4","rating","canvas-keyboard-response","211","376312","0.0-11.0-0.100","103","2022-3-22","14:37:5","1","20","[""Asian""]","No","Female","933398","","","","","","","","98","140","85","10","25","0",""
"null","null","clear_screen","canvas-keyboard-response","212","376572","0.0-11.0-1.100","103","2022-3-22","14:37:5","1","20","[""Asian""]","No","Female","933398","","","","","","","","98","140","85","10","25","",""
"1865","8","rating","canvas-keyboard-response","213","378447","0.0-11.0-0.101","103","2022-3-22","14:37:5","1","20","[""Asian""]","No","Female","933398","","","","","","","","120","30","30","17","33","1",""
"null","null","clear_screen","canvas-keyboard-response","214","378707","0.0-11.0-1.101","103","2022-3-22","14:37:5","1","20","[""Asian""]","No","Female","933398","","","","","","","","120","30","30","17","33","",""
"1406","6","rating","canvas-keyboard-response","215","380127","0.0-11.0-0.102","103","2022-3-22","14:37:5","1","20","[""Asian""]","No","Female","933398","","","","","","","","218","57","30","25","40","1",""
"null","null","clear_screen","canvas-keyboard-response","216","380388","0.0-11.0-1.102","103","2022-3-22","14:37:5","1","20","[""Asian""]","No","Female","933398","","","","","","","","218","57","30","25","40","",""
"1110","5","rating","canvas-keyboard-response","217","381511","0.0-11.0-0.103","103","2022-3-22","14:37:5","1","20","[""Asian""]","No","Female","933398","","","","","","","","253","140","85","25","40","0",""
"null","null","clear_screen","canvas-keyboard-response","218","381775","0.0-11.0-1.103","103","2022-3-22","14:37:5","1","20","[""Asian""]","No","Female","933398","","","","","","","","253","140","85","25","40","",""
"1550","3","rating","canvas-keyboard-response","219","383335","0.0-11.0-0.104","103","2022-3-22","14:37:5","1","20","[""Asian""]","No","Female","933398","","","","","","","","7","30","85","10","17","0",""
"null","null","clear_screen","canvas-keyboard-response","220","383598","0.0-11.0-1.104","103","2022-3-22","14:37:5","1","20","[""Asian""]","No","Female","933398","","","","","","","","7","30","85","10","17","",""
"954","2","rating","canvas-keyboard-response","221","384567","0.0-11.0-0.105","103","2022-3-22","14:37:5","1","20","[""Asian""]","No","Female","933398","","","","","","","","171","113","30","17","33","0",""
"null","null","clear_screen","canvas-keyboard-response","222","384827","0.0-11.0-1.105","103","2022-3-22","14:37:5","1","20","[""Asian""]","No","Female","933398","","","","","","","","171","113","30","17","33","",""
"1057","4","rating","canvas-keyboard-response","223","385895","0.0-11.0-0.106","103","2022-3-22","14:37:5","1","20","[""Asian""]","No","Female","933398","","","","","","","","173","113","85","17","33","1",""
"null","null","clear_screen","canvas-keyboard-response","224","386156","0.0-11.0-1.106","103","2022-3-22","14:37:5","1","20","[""Asian""]","No","Female","933398","","","","","","","","173","113","85","17","33","",""
"2129","6","rating","canvas-keyboard-response","225","388295","0.0-11.0-0.107","103","2022-3-22","14:37:5","1","20","[""Asian""]","No","Female","933398","","","","","","","","111","30","57","17","17","0",""
"null","null","clear_screen","canvas-keyboard-response","226","388556","0.0-11.0-1.107","103","2022-3-22","14:37:5","1","20","[""Asian""]","No","Female","933398","","","","","","","","111","30","57","17","17","",""
"2286","4","rating","canvas-keyboard-response","227","390855","0.0-11.0-0.108","103","2022-3-22","14:37:5","1","20","[""Asian""]","No","Female","933398","","","","","","","","172","113","57","17","33","1",""
"null","null","clear_screen","canvas-keyboard-response","228","391116","0.0-11.0-1.108","103","2022-3-22","14:37:5","1","20","[""Asian""]","No","Female","933398","","","","","","","","172","113","57","17","33","",""
"4848","9","rating","canvas-keyboard-response","229","395976","0.0-11.0-0.109","103","2022-3-22","14:37:5","1","20","[""Asian""]","No","Female","933398","","","","","","","","260","30","30","33","40","0",""
"null","null","clear_screen","canvas-keyboard-response","230","396233","0.0-11.0-1.109","103","2022-3-22","14:37:5","1","20","[""Asian""]","No","Female","933398","","","","","","","","260","30","30","33","40","",""
"1867","1","rating","canvas-keyboard-response","231","398111","0.0-11.0-0.110","103","2022-3-22","14:37:5","1","20","[""Asian""]","No","Female","933398","","","","","","","","19","30","140","10","33","0",""
"null","null","clear_screen","canvas-keyboard-response","232","398371","0.0-11.0-1.110","103","2022-3-22","14:37:5","1","20","[""Asian""]","No","Female","933398","","","","","","","","19","30","140","10","33","",""
"1734","1","rating","canvas-keyboard-response","233","400119","0.0-11.0-0.111","103","2022-3-22","14:37:5","1","20","[""Asian""]","No","Female","933398","","","","","","","","77","113","57","10","25","1",""
"null","null","clear_screen","canvas-keyboard-response","234","400378","0.0-11.0-1.111","103","2022-3-22","14:37:5","1","20","[""Asian""]","No","Female","933398","","","","","","","","77","113","57","10","25","",""
"1503","4","rating","canvas-keyboard-response","235","401895","0.0-11.0-0.112","103","2022-3-22","14:37:5","1","20","[""Asian""]","No","Female","933398","","","","","","","","276","85","57","33","40","0",""
"null","null","clear_screen","canvas-keyboard-response","236","402156","0.0-11.0-1.112","103","2022-3-22","14:37:5","1","20","[""Asian""]","No","Female","933398","","","","","","","","276","85","57","33","40","",""
"2031","4","rating","canvas-keyboard-response","237","404199","0.0-11.0-0.113","103","2022-3-22","14:37:5","1","20","[""Asian""]","No","Female","933398","","","","","","","","289","140","113","33","40","0",""
"null","null","clear_screen","canvas-keyboard-response","238","404459","0.0-11.0-1.113","103","2022-3-22","14:37:5","1","20","[""Asian""]","No","Female","933398","","","","","","","","289","140","113","33","40","",""
"1110","3","rating","canvas-keyboard-response","239","405583","0.0-11.0-0.114","103","2022-3-22","14:37:5","1","20","[""Asian""]","No","Female","933398","","","","","","","","264","30","140","33","40","0",""
"null","null","clear_screen","canvas-keyboard-response","240","405843","0.0-11.0-1.114","103","2022-3-22","14:37:5","1","20","[""Asian""]","No","Female","933398","","","","","","","","264","30","140","33","40","",""
"1818","6","rating","canvas-keyboard-response","241","407671","0.0-11.0-0.115","103","2022-3-22","14:37:5","1","20","[""Asian""]","No","Female","933398","","","","","","","","174","113","113","17","33","0",""
"null","null","clear_screen","canvas-keyboard-response","242","407933","0.0-11.0-1.115","103","2022-3-22","14:37:5","1","20","[""Asian""]","No","Female","933398","","","","","","","","174","113","113","17","33","",""
"1166","5","rating","canvas-keyboard-response","243","409112","0.0-11.0-0.116","103","2022-3-22","14:37:5","1","20","[""Asian""]","No","Female","933398","","","","","","","","63","85","113","10","33","1",""
"null","null","clear_screen","canvas-keyboard-response","244","409372","0.0-11.0-1.116","103","2022-3-22","14:37:5","1","20","[""Asian""]","No","Female","933398","","","","","","","","63","85","113","10","33","",""
"1118","3","rating","canvas-keyboard-response","245","410503","0.0-11.0-0.117","103","2022-3-22","14:37:5","1","20","[""Asian""]","No","Female","933398","","","","","","","","118","30","113","17","25","0",""
"null","null","clear_screen","canvas-keyboard-response","246","410766","0.0-11.0-1.117","103","2022-3-22","14:37:5","1","20","[""Asian""]","No","Female","933398","","","","","","","","118","30","113","17","25","",""
"981","4","rating","canvas-keyboard-response","247","411759","0.0-11.0-0.118","103","2022-3-22","14:37:5","1","20","[""Asian""]","No","Female","933398","","","","","","","","90","113","140","10","40","1",""
"null","null","clear_screen","canvas-keyboard-response","248","412020","0.0-11.0-1.118","103","2022-3-22","14:37:5","1","20","[""Asian""]","No","Female","933398","","","","","","","","90","113","140","10","40","",""
"1514","4","rating","canvas-keyboard-response","249","413543","0.0-11.0-0.119","103","2022-3-22","14:37:5","1","20","[""Asian""]","No","Female","933398","","","","","","","","60","85","30","10","33","1",""
"null","null","clear_screen","canvas-keyboard-response","250","413805","0.0-11.0-1.119","103","2022-3-22","14:37:5","1","20","[""Asian""]","No","Female","933398","","","","","","","","60","85","30","10","33","",""
"1296","2","rating","canvas-keyboard-response","251","415111","0.0-11.0-0.120","103","2022-3-22","14:37:5","1","20","[""Asian""]","No","Female","933398","","","","","","","","12","30","85","10","25","0",""
"null","null","clear_screen","canvas-keyboard-response","252","415372","0.0-11.0-1.120","103","2022-3-22","14:37:5","1","20","[""Asian""]","No","Female","933398","","","","","","","","12","30","85","10","25","",""
"1854","2","rating","canvas-keyboard-response","253","417240","0.0-11.0-0.121","103","2022-3-22","14:37:5","1","20","[""Asian""]","No","Female","933398","","","","","","","","257","30","85","33","33","0",""
"null","null","clear_screen","canvas-keyboard-response","254","417503","0.0-11.0-1.121","103","2022-3-22","14:37:5","1","20","[""Asian""]","No","Female","933398","","","","","","","","257","30","85","33","33","",""
"2121","3","rating","canvas-keyboard-response","255","419639","0.0-11.0-0.122","103","2022-3-22","14:37:5","1","20","[""Asian""]","No","Female","933398","","","","","","","","40","57","85","10","33","0",""
"null","null","clear_screen","canvas-keyboard-response","256","419898","0.0-11.0-1.122","103","2022-3-22","14:37:5","1","20","[""Asian""]","No","Female","933398","","","","","","","","40","57","85","10","33","",""
"2779","9","rating","canvas-keyboard-response","257","422687","0.0-11.0-0.123","103","2022-3-22","14:37:5","1","20","[""Asian""]","No","Female","933398","","","","","","","","29","57","57","10","17","0",""
"null","null","clear_screen","canvas-keyboard-response","258","422950","0.0-11.0-1.123","103","2022-3-22","14:37:5","1","20","[""Asian""]","No","Female","933398","","","","","","","","29","57","57","10","17","",""
"1733","7","rating","canvas-keyboard-response","259","424695","0.0-11.0-0.124","103","2022-3-22","14:37:5","1","20","[""Asian""]","No","Female","933398","","","","","","","","165","113","140","17","17","1",""
"null","null","clear_screen","canvas-keyboard-response","260","424956","0.0-11.0-1.124","103","2022-3-22","14:37:5","1","20","[""Asian""]","No","Female","933398","","","","","","","","165","113","140","17","17","",""
"2456","4","rating","canvas-keyboard-response","261","427423","0.0-11.0-0.125","103","2022-3-22","14:37:5","1","20","[""Asian""]","No","Female","933398","","","","","","","","272","57","140","33","40","0",""
"null","null","clear_screen","canvas-keyboard-response","262","427684","0.0-11.0-1.125","103","2022-3-22","14:37:5","1","20","[""Asian""]","No","Female","933398","","","","","","","","272","57","140","33","40","",""
"1391","5","rating","canvas-keyboard-response","263","429088","0.0-11.0-0.126","103","2022-3-22","14:37:5","1","20","[""Asian""]","No","Female","933398","","","","","","","","210","57","85","25","25","1",""
"null","null","clear_screen","canvas-keyboard-response","264","429347","0.0-11.0-1.126","103","2022-3-22","14:37:5","1","20","[""Asian""]","No","Female","933398","","","","","","","","210","57","85","25","25","",""
"2873","4","rating","canvas-keyboard-response","265","432231","0.0-11.0-0.127","103","2022-3-22","14:37:5","1","20","[""Asian""]","No","Female","933398","","","","","","","","78","113","85","10","25","1",""
"null","null","clear_screen","canvas-keyboard-response","266","432490","0.0-11.0-1.127","103","2022-3-22","14:37:5","1","20","[""Asian""]","No","Female","933398","","","","","","","","78","113","85","10","25","",""
"1305","3","rating","canvas-keyboard-response","267","433807","0.0-11.0-0.128","103","2022-3-22","14:37:5","1","20","[""Asian""]","No","Female","933398","","","","","","","","252","140","57","25","40","1",""
"null","null","clear_screen","canvas-keyboard-response","268","434069","0.0-11.0-1.128","103","2022-3-22","14:37:5","1","20","[""Asian""]","No","Female","933398","","","","","","","","252","140","57","25","40","",""
"2207","6","rating","canvas-keyboard-response","269","436287","0.0-11.0-0.129","103","2022-3-22","14:37:5","1","20","[""Asian""]","No","Female","933398","","","","","","","","15","30","30","10","33","1",""
"null","null","clear_screen","canvas-keyboard-response","270","436548","0.0-11.0-1.129","103","2022-3-22","14:37:5","1","20","[""Asian""]","No","Female","933398","","","","","","","","15","30","30","10","33","",""
"2422","9","rating","canvas-keyboard-response","271","438983","0.0-11.0-0.130","103","2022-3-22","14:37:5","1","20","[""Asian""]","No","Female","933398","","","","","","","","214","57","57","25","33","0",""
"null","null","clear_screen","canvas-keyboard-response","272","439242","0.0-11.0-1.130","103","2022-3-22","14:37:5","1","20","[""Asian""]","No","Female","933398","","","","","","","","214","57","57","25","33","",""
"1670","7","rating","canvas-keyboard-response","273","440927","0.0-11.0-0.131","103","2022-3-22","14:37:5","1","20","[""Asian""]","No","Female","933398","","","","","","","","298","85","113","40","40","0",""
"null","null","clear_screen","canvas-keyboard-response","274","441190","0.0-11.0-1.131","103","2022-3-22","14:37:5","1","20","[""Asian""]","No","Female","933398","","","","","","","","298","85","113","40","40","",""
"1627","2","rating","canvas-keyboard-response","275","442832","0.0-11.0-0.132","103","2022-3-22","14:37:5","1","20","[""Asian""]","No","Female","933398","","","","","","","","42","57","140","10","33","1",""
"null","null","clear_screen","canvas-keyboard-response","276","443093","0.0-11.0-1.132","103","2022-3-22","14:37:5","1","20","[""Asian""]","No","Female","933398","","","","","","","","42","57","140","10","33","",""
"2397","2","rating","canvas-keyboard-response","277","445504","0.0-11.0-0.133","103","2022-3-22","14:37:5","1","20","[""Asian""]","No","Female","933398","","","","","","","","187","140","57","17","33","0",""
"null","null","clear_screen","canvas-keyboard-response","278","445766","0.0-11.0-1.133","103","2022-3-22","14:37:5","1","20","[""Asian""]","No","Female","933398","","","","","","","","187","140","57","17","33","",""
"1026","2","rating","canvas-keyboard-response","279","446807","0.0-11.0-0.134","103","2022-3-22","14:37:5","1","20","[""Asian""]","No","Female","933398","","","","","","","","97","140","57","10","25","0",""
"null","null","clear_screen","canvas-keyboard-response","280","447064","0.0-11.0-1.134","103","2022-3-22","14:37:5","1","20","[""Asian""]","No","Female","933398","","","","","","","","97","140","57","10","25","",""
"1948","3","rating","canvas-keyboard-response","281","449024","0.0-11.0-0.135","103","2022-3-22","14:37:5","1","20","[""Asian""]","No","Female","933398","","","","","","","","188","140","85","17","33","1",""
"null","null","clear_screen","canvas-keyboard-response","282","449284","0.0-11.0-1.135","103","2022-3-22","14:37:5","1","20","[""Asian""]","No","Female","933398","","","","","","","","188","140","85","17","33","",""
"2206","5","rating","canvas-keyboard-response","283","451505","0.0-11.0-0.136","103","2022-3-22","14:37:5","1","20","[""Asian""]","No","Female","933398","","","","","","","","278","85","113","33","40","0",""
"null","null","clear_screen","canvas-keyboard-response","284","451765","0.0-11.0-1.136","103","2022-3-22","14:37:5","1","20","[""Asian""]","No","Female","933398","","","","","","","","278","85","113","33","40","",""
"2083","4","rating","canvas-keyboard-response","285","453863","0.0-11.0-0.137","103","2022-3-22","14:37:5","1","20","[""Asian""]","No","Female","933398","","","","","","","","161","85","57","17","40","1",""
"null","null","clear_screen","canvas-keyboard-response","286","454125","0.0-11.0-1.137","103","2022-3-22","14:37:5","1","20","[""Asian""]","No","Female","933398","","","","","","","","161","85","57","17","40","",""
"2075","1","rating","canvas-keyboard-response","287","456216","0.0-11.0-0.138","103","2022-3-22","14:37:5","1","20","[""Asian""]","No","Female","933398","","","","","","","","91","140","30","10","17","1",""
"null","null","clear_screen","canvas-keyboard-response","288","456476","0.0-11.0-1.138","103","2022-3-22","14:37:5","1","20","[""Asian""]","No","Female","933398","","","","","","","","91","140","30","10","17","",""
"2703","8","rating","canvas-keyboard-response","289","459192","0.0-11.0-0.139","103","2022-3-22","14:37:5","1","20","[""Asian""]","No","Female","933398","","","","","","","","152","85","85","17","25","1",""
"null","null","clear_screen","canvas-keyboard-response","290","459451","0.0-11.0-1.139","103","2022-3-22","14:37:5","1","20","[""Asian""]","No","Female","933398","","","","","","","","152","85","85","17","25","",""
"1553","7","rating","canvas-keyboard-response","291","461016","0.0-11.0-0.140","103","2022-3-22","14:37:5","1","20","[""Asian""]","No","Female","933398","","","","","","","","75","113","140","10","17","1",""
"null","null","clear_screen","canvas-keyboard-response","292","461277","0.0-11.0-1.140","103","2022-3-22","14:37:5","1","20","[""Asian""]","No","Female","933398","","","","","","","","75","113","140","10","17","",""
"2961","4","rating","canvas-keyboard-response","293","464248","0.0-11.0-0.141","103","2022-3-22","14:37:5","1","20","[""Asian""]","No","Female","933398","","","","","","","","87","113","57","10","40","1",""
"null","null","clear_screen","canvas-keyboard-response","294","464512","0.0-11.0-1.141","103","2022-3-22","14:37:5","1","20","[""Asian""]","No","Female","933398","","","","","","","","87","113","57","10","40","",""
"1069","3","rating","canvas-keyboard-response","295","465592","0.0-11.0-0.142","103","2022-3-22","14:37:5","1","20","[""Asian""]","No","Female","933398","","","","","","","","124","30","140","17","33","1",""
"null","null","clear_screen","canvas-keyboard-response","296","465852","0.0-11.0-1.142","103","2022-3-22","14:37:5","1","20","[""Asian""]","No","Female","933398","","","","","","","","124","30","140","17","33","",""
"2259","4","rating","canvas-keyboard-response","297","468127","0.0-11.0-0.143","103","2022-3-22","14:37:5","1","20","[""Asian""]","No","Female","933398","","","","","","","","140","57","85","17","33","1",""
"null","null","clear_screen","canvas-keyboard-response","298","468388","0.0-11.0-1.143","103","2022-3-22","14:37:5","1","20","[""Asian""]","No","Female","933398","","","","","","","","140","57","85","17","33","",""
"2543","4","rating","canvas-keyboard-response","299","470944","0.0-11.0-0.144","103","2022-3-22","14:37:5","1","20","[""Asian""]","No","Female","933398","","","","","","","","103","140","85","10","33","0",""
"null","null","clear_screen","canvas-keyboard-response","300","471204","0.0-11.0-1.144","103","2022-3-22","14:37:5","1","20","[""Asian""]","No","Female","933398","","","","","","","","103","140","85","10","33","",""
"1687","5","rating","canvas-keyboard-response","301","472904","0.0-11.0-0.145","103","2022-3-22","14:37:5","1","20","[""Asian""]","No","Female","933398","","","","","","","","56","85","57","10","25","1",""
"null","null","clear_screen","canvas-keyboard-response","302","473165","0.0-11.0-1.145","103","2022-3-22","14:37:5","1","20","[""Asian""]","No","Female","933398","","","","","","","","56","85","57","10","25","",""
"1285","4","rating","canvas-keyboard-response","303","474464","0.0-11.0-0.146","103","2022-3-22","14:37:5","1","20","[""Asian""]","No","Female","933398","","","","","","","","154","85","140","17","25","1",""
"null","null","clear_screen","canvas-keyboard-response","304","474727","0.0-11.0-1.146","103","2022-3-22","14:37:5","1","20","[""Asian""]","No","Female","933398","","","","","","","","154","85","140","17","25","",""
"2956","8","rating","canvas-keyboard-response","305","477695","0.0-11.0-0.147","103","2022-3-22","14:37:5","1","20","[""Asian""]","No","Female","933398","","","","","","","","284","113","113","33","40","0",""
"null","null","clear_screen","canvas-keyboard-response","306","477956","0.0-11.0-1.147","103","2022-3-22","14:37:5","1","20","[""Asian""]","No","Female","933398","","","","","","","","284","113","113","33","40","",""
"2432","4","rating","canvas-keyboard-response","307","480399","0.0-11.0-0.148","103","2022-3-22","14:37:5","1","20","[""Asian""]","No","Female","933398","","","","","","","","217","57","140","25","33","1",""
"null","null","clear_screen","canvas-keyboard-response","308","480660","0.0-11.0-1.148","103","2022-3-22","14:37:5","1","20","[""Asian""]","No","Female","933398","","","","","","","","217","57","140","25","33","",""
"2254","2","rating","canvas-keyboard-response","309","482927","0.0-11.0-0.149","103","2022-3-22","14:37:5","1","20","[""Asian""]","No","Female","933398","","","","","","","","76","113","30","10","25","0",""
"null","null","clear_screen","canvas-keyboard-response","310","483189","0.0-11.0-1.149","103","2022-3-22","14:37:5","1","20","[""Asian""]","No","Female","933398","","","","","","","","76","113","30","10","25","",""
"2202","5","rating","canvas-keyboard-response","311","485407","0.0-11.0-0.150","103","2022-3-22","14:37:5","1","20","[""Asian""]","No","Female","933398","","","","","","","","10","30","30","10","25","1",""
"null","null","clear_screen","canvas-keyboard-response","312","485669","0.0-11.0-1.150","103","2022-3-22","14:37:5","1","20","[""Asian""]","No","Female","933398","","","","","","","","10","30","30","10","25","",""
"1972","2","rating","canvas-keyboard-response","313","487655","0.0-11.0-0.151","103","2022-3-22","14:37:5","1","20","[""Asian""]","No","Female","933398","","","","","","","","127","30","85","17","40","1",""
"null","null","clear_screen","canvas-keyboard-response","314","487915","0.0-11.0-1.151","103","2022-3-22","14:37:5","1","20","[""Asian""]","No","Female","933398","","","","","","","","127","30","85","17","40","",""
"1873","5","rating","canvas-keyboard-response","315","489799","0.0-11.0-0.152","103","2022-3-22","14:37:5","1","20","[""Asian""]","No","Female","933398","","","","","","","","80","113","140","10","25","0",""
"null","null","clear_screen","canvas-keyboard-response","316","490060","0.0-11.0-1.152","103","2022-3-22","14:37:5","1","20","[""Asian""]","No","Female","933398","","","","","","","","80","113","140","10","25","",""
"1790","1","rating","canvas-keyboard-response","317","491863","0.0-11.0-0.153","103","2022-3-22","14:37:5","1","20","[""Asian""]","No","Female","933398","","","","","","","","24","30","140","10","40","0",""
"null","null","clear_screen","canvas-keyboard-response","318","492123","0.0-11.0-1.153","103","2022-3-22","14:37:5","1","20","[""Asian""]","No","Female","933398","","","","","","","","24","30","140","10","40","",""
"3623","4","rating","canvas-keyboard-response","319","495759","0.0-11.0-0.154","103","2022-3-22","14:37:5","1","20","[""Asian""]","No","Female","933398","","","","","","","","153","85","113","17","25","0",""
"null","null","clear_screen","canvas-keyboard-response","320","496023","0.0-11.0-1.154","103","2022-3-22","14:37:5","1","20","[""Asian""]","No","Female","933398","","","","","","","","153","85","113","17","25","",""
"1130","3","rating","canvas-keyboard-response","321","497168","0.0-11.0-0.155","103","2022-3-22","14:37:5","1","20","[""Asian""]","No","Female","933398","","","","","","","","159","85","140","17","33","0",""
"null","null","clear_screen","canvas-keyboard-response","322","497428","0.0-11.0-1.155","103","2022-3-22","14:37:5","1","20","[""Asian""]","No","Female","933398","","","","","","","","159","85","140","17","33","",""
"1589","3","rating","canvas-keyboard-response","323","499031","0.0-11.0-0.156","103","2022-3-22","14:37:5","1","20","[""Asian""]","No","Female","933398","","","","","","","","296","57","113","40","40","0",""
"null","null","clear_screen","canvas-keyboard-response","324","499291","0.0-11.0-1.156","103","2022-3-22","14:37:5","1","20","[""Asian""]","No","Female","933398","","","","","","","","296","57","113","40","40","",""
"881","3","rating","canvas-keyboard-response","325","500183","0.0-11.0-0.157","103","2022-3-22","14:37:5","1","20","[""Asian""]","No","Female","933398","","","","","","","","266","57","113","33","33","0",""
"null","null","clear_screen","canvas-keyboard-response","326","500444","0.0-11.0-1.157","103","2022-3-22","14:37:5","1","20","[""Asian""]","No","Female","933398","","","","","","","","266","57","113","33","33","",""
"1385","2","rating","canvas-keyboard-response","327","501839","0.0-11.0-0.158","103","2022-3-22","14:37:5","1","20","[""Asian""]","No","Female","933398","","","","","","","","197","30","85","25","25","1",""
"null","null","clear_screen","canvas-keyboard-response","328","502100","0.0-11.0-1.158","103","2022-3-22","14:37:5","1","20","[""Asian""]","No","Female","933398","","","","","","","","197","30","85","25","25","",""
"1686","2","rating","canvas-keyboard-response","329","503800","0.0-11.0-0.159","103","2022-3-22","14:37:5","1","20","[""Asian""]","No","Female","933398","","","","","","","","287","140","57","33","40","1",""
"null","null","clear_screen","canvas-keyboard-response","330","504058","0.0-11.0-1.159","103","2022-3-22","14:37:5","1","20","[""Asian""]","No","Female","933398","","","","","","","","287","140","57","33","40","",""
"1795","5","rating","canvas-keyboard-response","331","505863","0.0-11.0-0.160","103","2022-3-22","14:37:5","1","20","[""Asian""]","No","Female","933398","","","","","","","","239","113","113","25","33","1",""
"null","null","clear_screen","canvas-keyboard-response","332","506124","0.0-11.0-1.160","103","2022-3-22","14:37:5","1","20","[""Asian""]","No","Female","933398","","","","","","","","239","113","113","25","33","",""
"2014","3","rating","canvas-keyboard-response","333","508151","0.0-11.0-0.161","103","2022-3-22","14:37:5","1","20","[""Asian""]","No","Female","933398","","","","","","","","207","30","85","25","40","0",""
"null","null","clear_screen","canvas-keyboard-response","334","508411","0.0-11.0-1.161","103","2022-3-22","14:37:5","1","20","[""Asian""]","No","Female","933398","","","","","","","","207","30","85","25","40","",""
"1704","3","rating","canvas-keyboard-response","335","510127","0.0-11.0-0.162","103","2022-3-22","14:37:5","1","20","[""Asian""]","No","Female","933398","","","","","","","","93","140","85","10","17","0",""
"null","null","clear_screen","canvas-keyboard-response","336","510385","0.0-11.0-1.162","103","2022-3-22","14:37:5","1","20","[""Asian""]","No","Female","933398","","","","","","","","93","140","85","10","17","",""
"1567","3","rating","canvas-keyboard-response","337","511968","0.0-11.0-0.163","103","2022-3-22","14:37:5","1","20","[""Asian""]","No","Female","933398","","","","","","","","59","85","140","10","25","0",""
"null","null","clear_screen","canvas-keyboard-response","338","512230","0.0-11.0-1.163","103","2022-3-22","14:37:5","1","20","[""Asian""]","No","Female","933398","","","","","","","","59","85","140","10","25","",""
"1789","3","rating","canvas-keyboard-response","339","514031","0.0-11.0-0.164","103","2022-3-22","14:37:5","1","20","[""Asian""]","No","Female","933398","","","","","","","","150","85","30","17","25","0",""
"null","null","clear_screen","canvas-keyboard-response","340","514290","0.0-11.0-1.164","103","2022-3-22","14:37:5","1","20","[""Asian""]","No","Female","933398","","","","","","","","150","85","30","17","25","",""
"1618","2","rating","canvas-keyboard-response","341","515919","0.0-11.0-0.165","103","2022-3-22","14:37:5","1","20","[""Asian""]","No","Female","933398","","","","","","","","18","30","113","10","33","0",""
"null","null","clear_screen","canvas-keyboard-response","342","516179","0.0-11.0-1.165","103","2022-3-22","14:37:5","1","20","[""Asian""]","No","Female","933398","","","","","","","","18","30","113","10","33","",""
"1798","1","rating","canvas-keyboard-response","343","517991","0.0-11.0-0.166","103","2022-3-22","14:37:5","1","20","[""Asian""]","No","Female","933398","","","","","","","","246","140","30","25","33","1",""
"null","null","clear_screen","canvas-keyboard-response","344","518253","0.0-11.0-1.166","103","2022-3-22","14:37:5","1","20","[""Asian""]","No","Female","933398","","","","","","","","246","140","30","25","33","",""
"2392","4","rating","canvas-keyboard-response","345","520657","0.0-11.0-0.167","103","2022-3-22","14:37:5","1","20","[""Asian""]","No","Female","933398","","","","","","","","84","113","113","10","33","1",""
"null","null","clear_screen","canvas-keyboard-response","346","520921","0.0-11.0-1.167","103","2022-3-22","14:37:5","1","20","[""Asian""]","No","Female","933398","","","","","","","","84","113","113","10","33","",""
"3761","8","rating","canvas-keyboard-response","347","524695","0.0-11.0-0.168","103","2022-3-22","14:37:5","1","20","[""Asian""]","No","Female","933398","","","","","","","","290","140","140","33","40","1",""
"null","null","clear_screen","canvas-keyboard-response","348","524957","0.0-11.0-1.168","103","2022-3-22","14:37:5","1","20","[""Asian""]","No","Female","933398","","","","","","","","290","140","140","33","40","",""
"2651","5","rating","canvas-keyboard-response","349","527624","0.0-11.0-0.169","103","2022-3-22","14:37:5","1","20","[""Asian""]","No","Female","933398","","","","","","","","135","57","85","17","25","1",""
"null","null","clear_screen","canvas-keyboard-response","350","527884","0.0-11.0-1.169","103","2022-3-22","14:37:5","1","20","[""Asian""]","No","Female","933398","","","","","","","","135","57","85","17","25","",""
"3094","4","rating","canvas-keyboard-response","351","530992","0.0-11.0-0.170","103","2022-3-22","14:37:5","1","20","[""Asian""]","No","Female","933398","","","","","","","","275","85","30","33","40","1",""
"null","null","clear_screen","canvas-keyboard-response","352","531251","0.0-11.0-1.170","103","2022-3-22","14:37:5","1","20","[""Asian""]","No","Female","933398","","","","","","","","275","85","30","33","40","",""
"7590","3","rating","canvas-keyboard-response","353","538856","0.0-11.0-0.171","103","2022-3-22","14:37:5","1","20","[""Asian""]","No","Female","933398","","","","","","","","8","30","113","10","17","1",""
"null","null","clear_screen","canvas-keyboard-response","354","539117","0.0-11.0-1.171","103","2022-3-22","14:37:5","1","20","[""Asian""]","No","Female","933398","","","","","","","","8","30","113","10","17","",""
"1119","3","rating","canvas-keyboard-response","355","540248","0.0-11.0-0.172","103","2022-3-22","14:37:5","1","20","[""Asian""]","No","Female","933398","","","","","","","","258","30","113","33","33","0",""
"null","null","clear_screen","canvas-keyboard-response","356","540508","0.0-11.0-1.172","103","2022-3-22","14:37:5","1","20","[""Asian""]","No","Female","933398","","","","","","","","258","30","113","33","33","",""
"3937","7","rating","canvas-keyboard-response","357","544456","0.0-11.0-0.173","103","2022-3-22","14:37:5","1","20","[""Asian""]","No","Female","933398","","","","","","","","48","85","113","10","10","0",""
"null","null","clear_screen","canvas-keyboard-response","358","544719","0.0-11.0-1.173","103","2022-3-22","14:37:5","1","20","[""Asian""]","No","Female","933398","","","","","","","","48","85","113","10","10","",""
"1458","6","rating","canvas-keyboard-response","359","546191","0.0-11.0-0.174","103","2022-3-22","14:37:5","1","20","[""Asian""]","No","Female","933398","","","","","","","","224","85","140","25","25","1",""
"null","null","clear_screen","canvas-keyboard-response","360","546455","0.0-11.0-1.174","103","2022-3-22","14:37:5","1","20","[""Asian""]","No","Female","933398","","","","","","","","224","85","140","25","25","",""
"1834","4","rating","canvas-keyboard-response","361","548304","0.0-11.0-0.175","103","2022-3-22","14:37:5","1","20","[""Asian""]","No","Female","933398","","","","","","","","177","113","57","17","40","1",""
"null","null","clear_screen","canvas-keyboard-response","362","548567","0.0-11.0-1.175","103","2022-3-22","14:37:5","1","20","[""Asian""]","No","Female","933398","","","","","","","","177","113","57","17","40","",""
"1368","4","rating","canvas-keyboard-response","363","549943","0.0-11.0-0.176","103","2022-3-22","14:37:5","1","20","[""Asian""]","No","Female","933398","","","","","","","","229","85","140","25","33","1",""
"null","null","clear_screen","canvas-keyboard-response","364","550207","0.0-11.0-1.176","103","2022-3-22","14:37:5","1","20","[""Asian""]","No","Female","933398","","","","","","","","229","85","140","25","33","",""
"2310","4","rating","canvas-keyboard-response","365","552527","0.0-11.0-0.177","103","2022-3-22","14:37:5","1","20","[""Asian""]","No","Female","933398","","","","","","","","206","30","57","25","40","1",""
"null","null","clear_screen","canvas-keyboard-response","366","552788","0.0-11.0-1.177","103","2022-3-22","14:37:5","1","20","[""Asian""]","No","Female","933398","","","","","","","","206","30","57","25","40","",""
"1680","4","rating","canvas-keyboard-response","367","554479","0.0-11.0-0.178","103","2022-3-22","14:37:5","1","20","[""Asian""]","No","Female","933398","","","","","","","","38","57","30","10","33","1",""
"null","null","clear_screen","canvas-keyboard-response","368","554739","0.0-11.0-1.178","103","2022-3-22","14:37:5","1","20","[""Asian""]","No","Female","933398","","","","","","","","38","57","30","10","33","",""
"2352","4","rating","canvas-keyboard-response","369","557103","0.0-11.0-0.179","103","2022-3-22","14:37:5","1","20","[""Asian""]","No","Female","933398","","","","","","","","51","85","57","10","17","0",""
"null","null","clear_screen","canvas-keyboard-response","370","557364","0.0-11.0-1.179","103","2022-3-22","14:37:5","1","20","[""Asian""]","No","Female","933398","","","","","","","","51","85","57","10","17","",""
"1774","2","rating","canvas-keyboard-response","371","559151","0.0-11.0-0.180","103","2022-3-22","14:37:5","1","20","[""Asian""]","No","Female","933398","","","","","","","","251","140","30","25","40","0",""
"null","null","clear_screen","canvas-keyboard-response","372","559413","0.0-11.0-1.180","103","2022-3-22","14:37:5","1","20","[""Asian""]","No","Female","933398","","","","","","","","251","140","30","25","40","",""
"1317","2","rating","canvas-keyboard-response","373","560744","0.0-11.0-0.181","103","2022-3-22","14:37:5","1","20","[""Asian""]","No","Female","933398","","","","","","","","65","85","30","10","40","1",""
"null","null","clear_screen","canvas-keyboard-response","374","561006","0.0-11.0-1.181","103","2022-3-22","14:37:5","1","20","[""Asian""]","No","Female","933398","","","","","","","","65","85","30","10","40","",""
"1613","2","rating","canvas-keyboard-response","375","562631","0.0-11.0-0.182","103","2022-3-22","14:37:5","1","20","[""Asian""]","No","Female","933398","","","","","","","","155","85","30","17","33","1",""
"null","null","clear_screen","canvas-keyboard-response","376","562891","0.0-11.0-1.182","103","2022-3-22","14:37:5","1","20","[""Asian""]","No","Female","933398","","","","","","","","155","85","30","17","33","",""
"1526","3","rating","canvas-keyboard-response","377","564431","0.0-11.0-0.183","103","2022-3-22","14:37:5","1","20","[""Asian""]","No","Female","933398","","","","","","","","11","30","57","10","25","1",""
"null","null","clear_screen","canvas-keyboard-response","378","564690","0.0-11.0-1.183","103","2022-3-22","14:37:5","1","20","[""Asian""]","No","Female","933398","","","","","","","","11","30","57","10","25","",""
"1780","1","rating","canvas-keyboard-response","379","566480","0.0-11.0-0.184","103","2022-3-22","14:37:5","1","20","[""Asian""]","No","Female","933398","","","","","","","","22","30","85","10","40","1",""
"null","null","clear_screen","canvas-keyboard-response","380","566740","0.0-11.0-1.184","103","2022-3-22","14:37:5","1","20","[""Asian""]","No","Female","933398","","","","","","","","22","30","85","10","40","",""
"2111","7","rating","canvas-keyboard-response","381","568864","0.0-11.0-0.185","103","2022-3-22","14:37:5","1","20","[""Asian""]","No","Female","933398","","","","","","","","240","113","140","25","33","1",""
"null","null","clear_screen","canvas-keyboard-response","382","569124","0.0-11.0-1.185","103","2022-3-22","14:37:5","1","20","[""Asian""]","No","Female","933398","","","","","","","","240","113","140","25","33","",""
"2355","6","rating","canvas-keyboard-response","383","571487","0.0-11.0-0.186","103","2022-3-22","14:37:5","1","20","[""Asian""]","No","Female","933398","","","","","","","","133","57","30","17","25","1",""
"null","null","clear_screen","canvas-keyboard-response","384","571748","0.0-11.0-1.186","103","2022-3-22","14:37:5","1","20","[""Asian""]","No","Female","933398","","","","","","","","133","57","30","17","25","",""
"2245","5","rating","canvas-keyboard-response","385","574008","0.0-11.0-0.187","103","2022-3-22","14:37:5","1","20","[""Asian""]","No","Female","933398","","","","","","","","58","85","113","10","25","0",""
"null","null","clear_screen","canvas-keyboard-response","386","574266","0.0-11.0-1.187","103","2022-3-22","14:37:5","1","20","[""Asian""]","No","Female","933398","","","","","","","","58","85","113","10","25","",""
"1355","4","rating","canvas-keyboard-response","387","575631","0.0-11.0-0.188","103","2022-3-22","14:37:5","1","20","[""Asian""]","No","Female","933398","","","","","","","","126","30","57","17","40","0",""
"null","null","clear_screen","canvas-keyboard-response","388","575895","0.0-11.0-1.188","103","2022-3-22","14:37:5","1","20","[""Asian""]","No","Female","933398","","","","","","","","126","30","57","17","40","",""
"1260","4","rating","canvas-keyboard-response","389","577167","0.0-11.0-0.189","103","2022-3-22","14:37:5","1","20","[""Asian""]","No","Female","933398","","","","","","","","167","113","57","17","25","1",""
"null","null","clear_screen","canvas-keyboard-response","390","577428","0.0-11.0-1.189","103","2022-3-22","14:37:5","1","20","[""Asian""]","No","Female","933398","","","","","","","","167","113","57","17","25","",""
"2136","4","rating","canvas-keyboard-response","391","579575","0.0-11.0-0.190","103","2022-3-22","14:37:5","1","20","[""Asian""]","No","Female","933398","","","","","","","","226","85","57","25","33","1",""
"null","null","clear_screen","canvas-keyboard-response","392","579838","0.0-11.0-1.190","103","2022-3-22","14:37:5","1","20","[""Asian""]","No","Female","933398","","","","","","","","226","85","57","25","33","",""
"1922","5","rating","canvas-keyboard-response","393","581775","0.0-11.0-0.191","103","2022-3-22","14:37:5","1","20","[""Asian""]","No","Female","933398","","","","","","","","265","57","85","33","33","1",""
"null","null","clear_screen","canvas-keyboard-response","394","582036","0.0-11.0-1.191","103","2022-3-22","14:37:5","1","20","[""Asian""]","No","Female","933398","","","","","","","","265","57","85","33","33","",""
"1008","5","rating","canvas-keyboard-response","395","583055","0.0-11.0-0.192","103","2022-3-22","14:37:5","1","20","[""Asian""]","No","Female","933398","","","","","","","","115","30","30","17","25","1",""
"null","null","clear_screen","canvas-keyboard-response","396","583316","0.0-11.0-1.192","103","2022-3-22","14:37:5","1","20","[""Asian""]","No","Female","933398","","","","","","","","115","30","30","17","25","",""
"4264","8","rating","canvas-keyboard-response","397","587592","0.0-11.0-0.193","103","2022-3-22","14:37:5","1","20","[""Asian""]","No","Female","933398","","","","","","","","134","57","57","17","25","0",""
"null","null","clear_screen","canvas-keyboard-response","398","587851","0.0-11.0-1.193","103","2022-3-22","14:37:5","1","20","[""Asian""]","No","Female","933398","","","","","","","","134","57","57","17","25","",""
"1905","5","rating","canvas-keyboard-response","399","589767","0.0-11.0-0.194","103","2022-3-22","14:37:5","1","20","[""Asian""]","No","Female","933398","","","","","","","","16","30","57","10","33","1",""
"null","null","clear_screen","canvas-keyboard-response","400","590031","0.0-11.0-1.194","103","2022-3-22","14:37:5","1","20","[""Asian""]","No","Female","933398","","","","","","","","16","30","57","10","33","",""
"1517","1","rating","canvas-keyboard-response","401","591560","0.0-11.0-0.195","103","2022-3-22","14:37:5","1","20","[""Asian""]","No","Female","933398","","","","","","","","106","140","30","10","40","1",""
"null","null","clear_screen","canvas-keyboard-response","402","591824","0.0-11.0-1.195","103","2022-3-22","14:37:5","1","20","[""Asian""]","No","Female","933398","","","","","","","","106","140","30","10","40","",""
"1472","2","rating","canvas-keyboard-response","403","593312","0.0-11.0-0.196","103","2022-3-22","14:37:5","1","20","[""Asian""]","No","Female","933398","","","","","","","","238","113","85","25","33","0",""
"null","null","clear_screen","canvas-keyboard-response","404","593574","0.0-11.0-1.196","103","2022-3-22","14:37:5","1","20","[""Asian""]","No","Female","933398","","","","","","","","238","113","85","25","33","",""
"3097","7","rating","canvas-keyboard-response","405","596688","0.0-11.0-0.197","103","2022-3-22","14:37:5","1","20","[""Asian""]","No","Female","933398","","","","","","","","95","140","140","10","17","1",""
"null","null","clear_screen","canvas-keyboard-response","406","596947","0.0-11.0-1.197","103","2022-3-22","14:37:5","1","20","[""Asian""]","No","Female","933398","","","","","","","","95","140","140","10","17","",""
"1958","5","rating","canvas-keyboard-response","407","598920","0.0-11.0-0.198","103","2022-3-22","14:37:5","1","20","[""Asian""]","No","Female","933398","","","","","","","","292","30","85","40","40","1",""
"null","null","clear_screen","canvas-keyboard-response","408","599180","0.0-11.0-1.198","103","2022-3-22","14:37:5","1","20","[""Asian""]","No","Female","933398","","","","","","","","292","30","85","40","40","",""
"6855","3","rating","canvas-keyboard-response","409","606048","0.0-11.0-0.199","103","2022-3-22","14:37:5","1","20","[""Asian""]","No","Female","933398","","","","","","","","279","85","140","33","40","1",""
"null","null","clear_screen","canvas-keyboard-response","410","606312","0.0-11.0-1.199","103","2022-3-22","14:37:5","1","20","[""Asian""]","No","Female","933398","","","","","","","","279","85","140","33","40","",""
"1485","2","rating","canvas-keyboard-response","411","607808","0.0-11.0-0.200","103","2022-3-22","14:37:5","1","20","[""Asian""]","No","Female","933398","","","","","","","","49","85","140","10","10","0",""
"null","null","clear_screen","canvas-keyboard-response","412","608072","0.0-11.0-1.200","103","2022-3-22","14:37:5","1","20","[""Asian""]","No","Female","933398","","","","","","","","49","85","140","10","10","",""
"1282","3","rating","canvas-keyboard-response","413","609367","0.0-11.0-0.201","103","2022-3-22","14:37:5","1","20","[""Asian""]","No","Female","933398","","","","","","","","234","85","140","25","40","1",""
"null","null","clear_screen","canvas-keyboard-response","414","609629","0.0-11.0-1.201","103","2022-3-22","14:37:5","1","20","[""Asian""]","No","Female","933398","","","","","","","","234","85","140","25","40","",""
"989","1","rating","canvas-keyboard-response","415","610631","0.0-11.0-0.202","103","2022-3-22","14:37:5","1","20","[""Asian""]","No","Female","933398","","","","","","","","186","140","30","17","33","0",""
"null","null","clear_screen","canvas-keyboard-response","416","610891","0.0-11.0-1.202","103","2022-3-22","14:37:5","1","20","[""Asian""]","No","Female","933398","","","","","","","","186","140","30","17","33","",""
"1535","2","rating","canvas-keyboard-response","417","612440","0.0-11.0-0.203","103","2022-3-22","14:37:5","1","20","[""Asian""]","No","Female","933398","","","","","","","","112","30","85","17","17","1",""
"null","null","clear_screen","canvas-keyboard-response","418","612701","0.0-11.0-1.203","103","2022-3-22","14:37:5","1","20","[""Asian""]","No","Female","933398","","","","","","","","112","30","85","17","17","",""
"1172","2","rating","canvas-keyboard-response","419","613887","0.0-11.0-0.204","103","2022-3-22","14:37:5","1","20","[""Asian""]","No","Female","933398","","","","","","","","36","57","113","10","25","1",""
"null","null","clear_screen","canvas-keyboard-response","420","614151","0.0-11.0-1.204","103","2022-3-22","14:37:5","1","20","[""Asian""]","No","Female","933398","","","","","","","","36","57","113","10","25","",""
"741","2","rating","canvas-keyboard-response","421","614904","0.0-11.0-0.205","103","2022-3-22","14:37:5","1","20","[""Asian""]","No","Female","933398","","","","","","","","123","30","113","17","33","1",""
"null","null","clear_screen","canvas-keyboard-response","422","615165","0.0-11.0-1.205","103","2022-3-22","14:37:5","1","20","[""Asian""]","No","Female","933398","","","","","","","","123","30","113","17","33","",""
"1715","9","rating","canvas-keyboard-response","423","616896","0.0-11.0-0.206","103","2022-3-22","14:37:5","1","20","[""Asian""]","No","Female","933398","","","","","","","","277","85","85","33","40","0",""
"null","null","clear_screen","canvas-keyboard-response","424","617159","0.0-11.0-1.206","103","2022-3-22","14:37:5","1","20","[""Asian""]","No","Female","933398","","","","","","","","277","85","85","33","40","",""
"1425","8","rating","canvas-keyboard-response","425","618599","0.0-11.0-0.207","103","2022-3-22","14:37:5","1","20","[""Asian""]","No","Female","933398","","","","","","","","254","140","113","25","40","0",""
"null","null","clear_screen","canvas-keyboard-response","426","618863","0.0-11.0-1.207","103","2022-3-22","14:37:5","1","20","[""Asian""]","No","Female","933398","","","","","","","","254","140","113","25","40","",""
"2554","5","rating","canvas-keyboard-response","427","621431","0.0-11.0-0.208","103","2022-3-22","14:37:5","1","20","[""Asian""]","No","Female","933398","","","","","","","","267","57","140","33","33","1",""
"null","null","clear_screen","canvas-keyboard-response","428","621692","0.0-11.0-1.208","103","2022-3-22","14:37:5","1","20","[""Asian""]","No","Female","933398","","","","","","","","267","57","140","33","33","",""
"3481","5","rating","canvas-keyboard-response","429","625184","0.0-11.0-0.209","103","2022-3-22","14:37:5","1","20","[""Asian""]","No","Female","933398","","","","","","","","158","85","113","17","33","0",""
"null","null","clear_screen","canvas-keyboard-response","430","625445","0.0-11.0-1.209","103","2022-3-22","14:37:5","1","20","[""Asian""]","No","Female","933398","","","","","","","","158","85","113","17","33","",""
"2731","8","rating","canvas-keyboard-response","431","628192","0.0-11.0-0.210","103","2022-3-22","14:37:5","1","20","[""Asian""]","No","Female","933398","","","","","","","","74","113","113","10","17","0",""
"null","null","clear_screen","canvas-keyboard-response","432","628452","0.0-11.0-1.210","103","2022-3-22","14:37:5","1","20","[""Asian""]","No","Female","933398","","","","","","","","74","113","113","10","17","",""
"2008","6","rating","canvas-keyboard-response","433","630471","0.0-11.0-0.211","103","2022-3-22","14:37:5","1","20","[""Asian""]","No","Female","933398","","","","","","","","175","113","140","17","33","1",""
"null","null","clear_screen","canvas-keyboard-response","434","630730","0.0-11.0-1.211","103","2022-3-22","14:37:5","1","20","[""Asian""]","No","Female","933398","","","","","","","","175","113","140","17","33","",""
"1738","1","rating","canvas-keyboard-response","435","632480","0.0-11.0-0.212","103","2022-3-22","14:37:5","1","20","[""Asian""]","No","Female","933398","","","","","","","","181","140","30","17","25","1",""
"null","null","clear_screen","canvas-keyboard-response","436","632743","0.0-11.0-1.212","103","2022-3-22","14:37:5","1","20","[""Asian""]","No","Female","933398","","","","","","","","181","140","30","17","25","",""
"3443","3","rating","canvas-keyboard-response","437","636200","0.0-11.0-0.213","103","2022-3-22","14:37:5","1","20","[""Asian""]","No","Female","933398","","","","","","","","89","113","113","10","40","1",""
"null","null","clear_screen","canvas-keyboard-response","438","636460","0.0-11.0-1.213","103","2022-3-22","14:37:5","1","20","[""Asian""]","No","Female","933398","","","","","","","","89","113","113","10","40","",""
"1185","1","rating","canvas-keyboard-response","439","637656","0.0-11.0-0.214","103","2022-3-22","14:37:5","1","20","[""Asian""]","No","Female","933398","","","","","","","","9","30","140","10","17","1",""
"null","null","clear_screen","canvas-keyboard-response","440","637918","0.0-11.0-1.214","103","2022-3-22","14:37:5","1","20","[""Asian""]","No","Female","933398","","","","","","","","9","30","140","10","17","",""
"2052","7","rating","canvas-keyboard-response","441","639984","0.0-11.0-0.215","103","2022-3-22","14:37:5","1","20","[""Asian""]","No","Female","933398","","","","","","","","200","30","30","25","33","1",""
"null","null","clear_screen","canvas-keyboard-response","442","640243","0.0-11.0-1.215","103","2022-3-22","14:37:5","1","20","[""Asian""]","No","Female","933398","","","","","","","","200","30","30","25","33","",""
"2705","4","rating","canvas-keyboard-response","443","642960","0.0-11.0-0.216","103","2022-3-22","14:37:5","1","20","[""Asian""]","No","Female","933398","","","","","","","","25","57","85","10","10","0",""
"null","null","clear_screen","canvas-keyboard-response","444","643219","0.0-11.0-1.216","103","2022-3-22","14:37:5","1","20","[""Asian""]","No","Female","933398","","","","","","","","25","57","85","10","10","",""
"2985","5","rating","canvas-keyboard-response","445","646215","0.0-11.0-0.217","103","2022-3-22","14:37:5","1","20","[""Asian""]","No","Female","933398","","","","","","","","184","140","113","17","25","1",""
"null","null","clear_screen","canvas-keyboard-response","446","646472","0.0-11.0-1.217","103","2022-3-22","14:37:5","1","20","[""Asian""]","No","Female","933398","","","","","","","","184","140","113","17","25","",""
"3933","8","rating","canvas-keyboard-response","447","650416","0.0-11.0-0.218","103","2022-3-22","14:37:5","1","20","[""Asian""]","No","Female","933398","","","","","","","","283","113","85","33","40","1",""
"null","null","clear_screen","canvas-keyboard-response","448","650679","0.0-11.0-1.218","103","2022-3-22","14:37:5","1","20","[""Asian""]","No","Female","933398","","","","","","","","283","113","85","33","40","",""
"2421","2","rating","canvas-keyboard-response","449","653111","0.0-11.0-0.219","103","2022-3-22","14:37:5","1","20","[""Asian""]","No","Female","933398","","","","","","","","236","113","30","25","33","1",""
"null","null","clear_screen","canvas-keyboard-response","450","653372","0.0-11.0-1.219","103","2022-3-22","14:37:5","1","20","[""Asian""]","No","Female","933398","","","","","","","","236","113","30","25","33","",""
"1896","4","rating","canvas-keyboard-response","451","655279","0.0-11.0-0.220","103","2022-3-22","14:37:5","1","20","[""Asian""]","No","Female","933398","","","","","","","","220","57","85","25","40","0",""
"null","null","clear_screen","canvas-keyboard-response","452","655538","0.0-11.0-1.220","103","2022-3-22","14:37:5","1","20","[""Asian""]","No","Female","933398","","","","","","","","220","57","85","25","40","",""
"1951","4","rating","canvas-keyboard-response","453","657503","0.0-11.0-0.221","103","2022-3-22","14:37:5","1","20","[""Asian""]","No","Female","933398","","","","","","","","64","85","140","10","33","1",""
"null","null","clear_screen","canvas-keyboard-response","454","657763","0.0-11.0-1.221","103","2022-3-22","14:37:5","1","20","[""Asian""]","No","Female","933398","","","","","","","","64","85","140","10","33","",""
"2177","4","rating","canvas-keyboard-response","455","659953","0.0-11.0-0.222","103","2022-3-22","14:37:5","1","20","[""Asian""]","No","Female","933398","","","","","","","","295","57","85","40","40","1",""
"null","null","clear_screen","canvas-keyboard-response","456","660215","0.0-11.0-1.222","103","2022-3-22","14:37:5","1","20","[""Asian""]","No","Female","933398","","","","","","","","295","57","85","40","40","",""
"3213","7","rating","canvas-keyboard-response","457","663440","0.0-11.0-0.223","103","2022-3-22","14:37:5","1","20","[""Asian""]","No","Female","933398","","","","","","","","169","113","113","17","25","0",""
"null","null","clear_screen","canvas-keyboard-response","458","663701","0.0-11.0-1.223","103","2022-3-22","14:37:5","1","20","[""Asian""]","No","Female","933398","","","","","","","","169","113","113","17","25","",""
"2629","5","rating","canvas-keyboard-response","459","666344","0.0-11.0-0.224","103","2022-3-22","14:37:5","1","20","[""Asian""]","No","Female","933398","","","","","","","","215","57","85","25","33","1",""
"null","null","clear_screen","canvas-keyboard-response","460","666605","0.0-11.0-1.224","103","2022-3-22","14:37:5","1","20","[""Asian""]","No","Female","933398","","","","","","","","215","57","85","25","33","",""
"19801","3","rating","canvas-keyboard-response","461","686417","0.0-11.0-0.225","103","2022-3-22","14:37:5","1","20","[""Asian""]","No","Female","933398","","","","","","","","221","57","113","25","40","1",""
"null","null","clear_screen","canvas-keyboard-response","462","686679","0.0-11.0-1.225","103","2022-3-22","14:37:5","1","20","[""Asian""]","No","Female","933398","","","","","","","","221","57","113","25","40","",""
"1102","1","rating","canvas-keyboard-response","463","687792","0.0-11.0-0.226","103","2022-3-22","14:37:5","1","20","[""Asian""]","No","Female","933398","","","","","","","","14","30","140","10","25","0",""
"null","null","clear_screen","canvas-keyboard-response","464","688052","0.0-11.0-1.226","103","2022-3-22","14:37:5","1","20","[""Asian""]","No","Female","933398","","","","","","","","14","30","140","10","25","",""
"2167","3","rating","canvas-keyboard-response","465","690232","0.0-11.0-0.227","103","2022-3-22","14:37:5","1","20","[""Asian""]","No","Female","933398","","","","","","","","138","57","30","17","33","0",""
"null","null","clear_screen","canvas-keyboard-response","466","690492","0.0-11.0-1.227","103","2022-3-22","14:37:5","1","20","[""Asian""]","No","Female","933398","","","","","","","","138","57","30","17","33","",""
"1310","1","rating","canvas-keyboard-response","467","691816","0.0-11.0-0.228","103","2022-3-22","14:37:5","1","20","[""Asian""]","No","Female","933398","","","","","","","","293","30","113","40","40","0",""
