"rt","response","trialType","trial_type","trial_index","time_elapsed","internal_node_id","sub_n","date","time","leftRight","age","race","ethnicity","gender","exp_duration","success","timeout","failed_images","failed_audio","failed_video","stimulus","view_history","trialID","radius_a","radius_b","angle_a","angle_b","lrCond","question_order"
"2590","{""response"":""100""}","enter-sub-number","survey-html-form","0","2601","0.0-0.0","100","2022-3-9","13:45:23","0","21","[""Other""]","No","Female","1000786","","","","","","","","","","","","","",""
"","","","fullscreen","1","5198","0.0-1.0","100","2022-3-9","13:45:23","0","21","[""Other""]","No","Female","1000786","true","","","","","","","","","","","","",""
"","","","preload","2","5210","0.0-2.0","100","2022-3-9","13:45:23","0","21","[""Other""]","No","Female","1000786","true","false","[]","[]","[]","","","","","","","","",""
"33850","0","","html-button-response","3","39061","0.0-3.0","100","2022-3-9","13:45:23","0","21","[""Other""]","No","Female","1000786","","","","","","<div style= ""font-size:25px;"" <p> <strong> Welcome to the experiment! </strong><br> <p style=""color:#8B0000; font-size:25px;""><strong> Please do NOT exit full screen until you are done with the experiment. </strong> </p><p style=""font-size:25px;color:#8B0000;""> <strong> The experiment will be canceled and your data will be lost <br> if you try to go back or refresh the page at any point during the experiment.</strong> </p><br><p> <strong> Thanks in advance for your contribution to our research! </strong></p>","","","","","","","",""
"40915","","","instructions","4","79981","0.0-4.0","100","2022-3-9","13:45:23","0","21","[""Other""]","No","Female","1000786","","","","","","","[{""page_index"":0,""viewing_time"":22016},{""page_index"":1,""viewing_time"":9290},{""page_index"":2,""viewing_time"":9608}]","","","","","","",""
"null","null","presentPop","canvas-keyboard-response","5","96000","0.0-5.0","100","2022-3-9","13:45:23","0","21","[""Other""]","No","Female","1000786","","","","","","","","","","","","","",""
"null","null","clear_screen","canvas-keyboard-response","6","96760","0.0-6.0","100","2022-3-9","13:45:23","0","21","[""Other""]","No","Female","1000786","","","","","","","","","","","","","",""
"2474","","","instructions","7","99237","0.0-7.0","100","2022-3-9","13:45:23","0","21","[""Other""]","No","Female","1000786","","","","","","","[{""page_index"":0,""viewing_time"":2474}]","","","","","","",""
"null","null","presentPop","canvas-keyboard-response","8","115252","0.0-8.0","100","2022-3-9","13:45:23","0","21","[""Other""]","No","Female","1000786","","","","","","","","","","","","","",""
"null","null","clear_screen","canvas-keyboard-response","9","116017","0.0-9.0","100","2022-3-9","13:45:23","0","21","[""Other""]","No","Female","1000786","","","","","","","","","","","","","",""
"12115","","","instructions","10","128133","0.0-10.0","100","2022-3-9","13:45:23","0","21","[""Other""]","No","Female","1000786","","","","","","","[{""page_index"":0,""viewing_time"":6554},{""page_index"":1,""viewing_time"":5560}]","","","","","","",""
"10619","5","rating","canvas-keyboard-response","11","139766","0.0-11.0-0.0","100","2022-3-9","13:45:23","0","21","[""Other""]","No","Female","1000786","","","","","","","","15","30","30","10","33","0",""
"null","null","clear_screen","canvas-keyboard-response","12","140027","0.0-11.0-1.0","100","2022-3-9","13:45:23","0","21","[""Other""]","No","Female","1000786","","","","","","","","15","30","30","10","33","",""
"5397","7","rating","canvas-keyboard-response","13","145437","0.0-11.0-0.1","100","2022-3-9","13:45:23","0","21","[""Other""]","No","Female","1000786","","","","","","","","130","57","85","17","17","1",""
"null","null","clear_screen","canvas-keyboard-response","14","145697","0.0-11.0-1.1","100","2022-3-9","13:45:23","0","21","[""Other""]","No","Female","1000786","","","","","","","","130","57","85","17","17","",""
"6887","5","rating","canvas-keyboard-response","15","152598","0.0-11.0-0.2","100","2022-3-9","13:45:23","0","21","[""Other""]","No","Female","1000786","","","","","","","","84","113","113","10","33","1",""
"null","null","clear_screen","canvas-keyboard-response","16","152860","0.0-11.0-1.2","100","2022-3-9","13:45:23","0","21","[""Other""]","No","Female","1000786","","","","","","","","84","113","113","10","33","",""
"7041","4","rating","canvas-keyboard-response","17","159918","0.0-11.0-0.3","100","2022-3-9","13:45:23","0","21","[""Other""]","No","Female","1000786","","","","","","","","228","85","113","25","33","0",""
"null","null","clear_screen","canvas-keyboard-response","18","160179","0.0-11.0-1.3","100","2022-3-9","13:45:23","0","21","[""Other""]","No","Female","1000786","","","","","","","","228","85","113","25","33","",""
"3572","3","rating","canvas-keyboard-response","19","163766","0.0-11.0-0.4","100","2022-3-9","13:45:23","0","21","[""Other""]","No","Female","1000786","","","","","","","","143","57","30","17","40","0",""
"null","null","clear_screen","canvas-keyboard-response","20","164027","0.0-11.0-1.4","100","2022-3-9","13:45:23","0","21","[""Other""]","No","Female","1000786","","","","","","","","143","57","30","17","40","",""
"7187","7","rating","canvas-keyboard-response","21","171228","0.0-11.0-0.5","100","2022-3-9","13:45:23","0","21","[""Other""]","No","Female","1000786","","","","","","","","279","85","140","33","40","1",""
"null","null","clear_screen","canvas-keyboard-response","22","171487","0.0-11.0-1.5","100","2022-3-9","13:45:23","0","21","[""Other""]","No","Female","1000786","","","","","","","","279","85","140","33","40","",""
"3724","6","rating","canvas-keyboard-response","23","175221","0.0-11.0-0.6","100","2022-3-9","13:45:23","0","21","[""Other""]","No","Female","1000786","","","","","","","","223","85","113","25","25","1",""
"null","null","clear_screen","canvas-keyboard-response","24","175483","0.0-11.0-1.6","100","2022-3-9","13:45:23","0","21","[""Other""]","No","Female","1000786","","","","","","","","223","85","113","25","25","",""
"3295","5","rating","canvas-keyboard-response","25","178788","0.0-11.0-0.7","100","2022-3-9","13:45:23","0","21","[""Other""]","No","Female","1000786","","","","","","","","247","140","57","25","33","1",""
"null","null","clear_screen","canvas-keyboard-response","26","179048","0.0-11.0-1.7","100","2022-3-9","13:45:23","0","21","[""Other""]","No","Female","1000786","","","","","","","","247","140","57","25","33","",""
"4994","6","rating","canvas-keyboard-response","27","184053","0.0-11.0-0.8","100","2022-3-9","13:45:23","0","21","[""Other""]","No","Female","1000786","","","","","","","","157","85","85","17","33","0",""
"null","null","clear_screen","canvas-keyboard-response","28","184314","0.0-11.0-1.8","100","2022-3-9","13:45:23","0","21","[""Other""]","No","Female","1000786","","","","","","","","157","85","85","17","33","",""
"2014","4","rating","canvas-keyboard-response","29","186341","0.0-11.0-0.9","100","2022-3-9","13:45:23","0","21","[""Other""]","No","Female","1000786","","","","","","","","224","85","140","25","25","1",""
"null","null","clear_screen","canvas-keyboard-response","30","186604","0.0-11.0-1.9","100","2022-3-9","13:45:23","0","21","[""Other""]","No","Female","1000786","","","","","","","","224","85","140","25","25","",""
"2118","4","rating","canvas-keyboard-response","31","188734","0.0-11.0-0.10","100","2022-3-9","13:45:23","0","21","[""Other""]","No","Female","1000786","","","","","","","","50","85","30","10","17","0",""
"null","null","clear_screen","canvas-keyboard-response","32","188996","0.0-11.0-1.10","100","2022-3-9","13:45:23","0","21","[""Other""]","No","Female","1000786","","","","","","","","50","85","30","10","17","",""
"2540","5","rating","canvas-keyboard-response","33","191549","0.0-11.0-0.11","100","2022-3-9","13:45:23","0","21","[""Other""]","No","Female","1000786","","","","","","","","83","113","85","10","33","0",""
"null","null","clear_screen","canvas-keyboard-response","34","191811","0.0-11.0-1.11","100","2022-3-9","13:45:23","0","21","[""Other""]","No","Female","1000786","","","","","","","","83","113","85","10","33","",""
"3308","4","rating","canvas-keyboard-response","35","195133","0.0-11.0-0.12","100","2022-3-9","13:45:23","0","21","[""Other""]","No","Female","1000786","","","","","","","","216","57","113","25","33","0",""
"null","null","clear_screen","canvas-keyboard-response","36","195392","0.0-11.0-1.12","100","2022-3-9","13:45:23","0","21","[""Other""]","No","Female","1000786","","","","","","","","216","57","113","25","33","",""
"1296","4","rating","canvas-keyboard-response","37","196701","0.0-11.0-0.13","100","2022-3-9","13:45:23","0","21","[""Other""]","No","Female","1000786","","","","","","","","22","30","85","10","40","1",""
"null","null","clear_screen","canvas-keyboard-response","38","196960","0.0-11.0-1.13","100","2022-3-9","13:45:23","0","21","[""Other""]","No","Female","1000786","","","","","","","","22","30","85","10","40","",""
"2707","6","rating","canvas-keyboard-response","39","199677","0.0-11.0-0.14","100","2022-3-9","13:45:23","0","21","[""Other""]","No","Female","1000786","","","","","","","","201","30","57","25","33","1",""
"null","null","clear_screen","canvas-keyboard-response","40","199937","0.0-11.0-1.14","100","2022-3-9","13:45:23","0","21","[""Other""]","No","Female","1000786","","","","","","","","201","30","57","25","33","",""
"3635","6","rating","canvas-keyboard-response","41","203589","0.0-11.0-0.15","100","2022-3-9","13:45:23","0","21","[""Other""]","No","Female","1000786","","","","","","","","70","113","140","10","10","0",""
"null","null","clear_screen","canvas-keyboard-response","42","203850","0.0-11.0-1.15","100","2022-3-9","13:45:23","0","21","[""Other""]","No","Female","1000786","","","","","","","","70","113","140","10","10","",""
"1955","5","rating","canvas-keyboard-response","43","205820","0.0-11.0-0.16","100","2022-3-9","13:45:23","0","21","[""Other""]","No","Female","1000786","","","","","","","","16","30","57","10","33","0",""
"null","null","clear_screen","canvas-keyboard-response","44","206078","0.0-11.0-1.16","100","2022-3-9","13:45:23","0","21","[""Other""]","No","Female","1000786","","","","","","","","16","30","57","10","33","",""
"1388","4","rating","canvas-keyboard-response","45","207476","0.0-11.0-0.17","100","2022-3-9","13:45:23","0","21","[""Other""]","No","Female","1000786","","","","","","","","159","85","140","17","33","0",""
"null","null","clear_screen","canvas-keyboard-response","46","207739","0.0-11.0-1.17","100","2022-3-9","13:45:23","0","21","[""Other""]","No","Female","1000786","","","","","","","","159","85","140","17","33","",""
"3666","5","rating","canvas-keyboard-response","47","211421","0.0-11.0-0.18","100","2022-3-9","13:45:23","0","21","[""Other""]","No","Female","1000786","","","","","","","","211","57","113","25","25","0",""
"null","null","clear_screen","canvas-keyboard-response","48","211680","0.0-11.0-1.18","100","2022-3-9","13:45:23","0","21","[""Other""]","No","Female","1000786","","","","","","","","211","57","113","25","25","",""
"4410","4","rating","canvas-keyboard-response","49","216100","0.0-11.0-0.19","100","2022-3-9","13:45:23","0","21","[""Other""]","No","Female","1000786","","","","","","","","66","85","57","10","40","1",""
"null","null","clear_screen","canvas-keyboard-response","50","216358","0.0-11.0-1.19","100","2022-3-9","13:45:23","0","21","[""Other""]","No","Female","1000786","","","","","","","","66","85","57","10","40","",""
"2160","3","rating","canvas-keyboard-response","51","218533","0.0-11.0-0.20","100","2022-3-9","13:45:23","0","21","[""Other""]","No","Female","1000786","","","","","","","","194","140","113","17","40","1",""
"null","null","clear_screen","canvas-keyboard-response","52","218794","0.0-11.0-1.20","100","2022-3-9","13:45:23","0","21","[""Other""]","No","Female","1000786","","","","","","","","194","140","113","17","40","",""
"4152","3","rating","canvas-keyboard-response","53","222958","0.0-11.0-0.21","100","2022-3-9","13:45:23","0","21","[""Other""]","No","Female","1000786","","","","","","","","73","113","85","10","17","0",""
"null","null","clear_screen","canvas-keyboard-response","54","223219","0.0-11.0-1.21","100","2022-3-9","13:45:23","0","21","[""Other""]","No","Female","1000786","","","","","","","","73","113","85","10","17","",""
"3440","5","rating","canvas-keyboard-response","55","226668","0.0-11.0-0.22","100","2022-3-9","13:45:23","0","21","[""Other""]","No","Female","1000786","","","","","","","","179","113","113","17","40","1",""
"null","null","clear_screen","canvas-keyboard-response","56","226927","0.0-11.0-1.22","100","2022-3-9","13:45:23","0","21","[""Other""]","No","Female","1000786","","","","","","","","179","113","113","17","40","",""
"4192","2","rating","canvas-keyboard-response","57","231133","0.0-11.0-0.23","100","2022-3-9","13:45:23","0","21","[""Other""]","No","Female","1000786","","","","","","","","106","140","30","10","40","1",""
"null","null","clear_screen","canvas-keyboard-response","58","231394","0.0-11.0-1.23","100","2022-3-9","13:45:23","0","21","[""Other""]","No","Female","1000786","","","","","","","","106","140","30","10","40","",""
"2853","3","rating","canvas-keyboard-response","59","234261","0.0-11.0-0.24","100","2022-3-9","13:45:23","0","21","[""Other""]","No","Female","1000786","","","","","","","","252","140","57","25","40","0",""
"null","null","clear_screen","canvas-keyboard-response","60","234519","0.0-11.0-1.24","100","2022-3-9","13:45:23","0","21","[""Other""]","No","Female","1000786","","","","","","","","252","140","57","25","40","",""
"5910","2","rating","canvas-keyboard-response","61","240444","0.0-11.0-0.25","100","2022-3-9","13:45:23","0","21","[""Other""]","No","Female","1000786","","","","","","","","286","140","30","33","40","0",""
"null","null","clear_screen","canvas-keyboard-response","62","240704","0.0-11.0-1.25","100","2022-3-9","13:45:23","0","21","[""Other""]","No","Female","1000786","","","","","","","","286","140","30","33","40","",""
"3385","2","rating","canvas-keyboard-response","63","244103","0.0-11.0-0.26","100","2022-3-9","13:45:23","0","21","[""Other""]","No","Female","1000786","","","","","","","","158","85","113","17","33","0",""
"null","null","clear_screen","canvas-keyboard-response","64","244364","0.0-11.0-1.26","100","2022-3-9","13:45:23","0","21","[""Other""]","No","Female","1000786","","","","","","","","158","85","113","17","33","",""
"1574","3","rating","canvas-keyboard-response","65","245948","0.0-11.0-0.27","100","2022-3-9","13:45:23","0","21","[""Other""]","No","Female","1000786","","","","","","","","77","113","57","10","25","0",""
"null","null","clear_screen","canvas-keyboard-response","66","246211","0.0-11.0-1.27","100","2022-3-9","13:45:23","0","21","[""Other""]","No","Female","1000786","","","","","","","","77","113","57","10","25","",""
"1643","3","rating","canvas-keyboard-response","67","247869","0.0-11.0-0.28","100","2022-3-9","13:45:23","0","21","[""Other""]","No","Female","1000786","","","","","","","","208","30","113","25","40","0",""
"null","null","clear_screen","canvas-keyboard-response","68","248128","0.0-11.0-1.28","100","2022-3-9","13:45:23","0","21","[""Other""]","No","Female","1000786","","","","","","","","208","30","113","25","40","",""
"1490","3","rating","canvas-keyboard-response","69","249630","0.0-11.0-0.29","100","2022-3-9","13:45:23","0","21","[""Other""]","No","Female","1000786","","","","","","","","124","30","140","17","33","1",""
"null","null","clear_screen","canvas-keyboard-response","70","249888","0.0-11.0-1.29","100","2022-3-9","13:45:23","0","21","[""Other""]","No","Female","1000786","","","","","","","","124","30","140","17","33","",""
"1303","3","rating","canvas-keyboard-response","71","251204","0.0-11.0-0.30","100","2022-3-9","13:45:23","0","21","[""Other""]","No","Female","1000786","","","","","","","","24","30","140","10","40","1",""
"null","null","clear_screen","canvas-keyboard-response","72","251466","0.0-11.0-1.30","100","2022-3-9","13:45:23","0","21","[""Other""]","No","Female","1000786","","","","","","","","24","30","140","10","40","",""
"1451","3","rating","canvas-keyboard-response","73","252933","0.0-11.0-0.31","100","2022-3-9","13:45:23","0","21","[""Other""]","No","Female","1000786","","","","","","","","148","85","113","17","17","1",""
"null","null","clear_screen","canvas-keyboard-response","74","253195","0.0-11.0-1.31","100","2022-3-9","13:45:23","0","21","[""Other""]","No","Female","1000786","","","","","","","","148","85","113","17","17","",""
"2500","5","rating","canvas-keyboard-response","75","255709","0.0-11.0-0.32","100","2022-3-9","13:45:23","0","21","[""Other""]","No","Female","1000786","","","","","","","","233","85","113","25","40","0",""
"null","null","clear_screen","canvas-keyboard-response","76","255968","0.0-11.0-1.32","100","2022-3-9","13:45:23","0","21","[""Other""]","No","Female","1000786","","","","","","","","233","85","113","25","40","",""
"1185","4","rating","canvas-keyboard-response","77","257165","0.0-11.0-0.33","100","2022-3-9","13:45:23","0","21","[""Other""]","No","Female","1000786","","","","","","","","87","113","57","10","40","0",""
"null","null","clear_screen","canvas-keyboard-response","78","257423","0.0-11.0-1.33","100","2022-3-9","13:45:23","0","21","[""Other""]","No","Female","1000786","","","","","","","","87","113","57","10","40","",""
"1123","3","rating","canvas-keyboard-response","79","258558","0.0-11.0-0.34","100","2022-3-9","13:45:23","0","21","[""Other""]","No","Female","1000786","","","","","","","","196","30","57","25","25","1",""
"null","null","clear_screen","canvas-keyboard-response","80","258816","0.0-11.0-1.34","100","2022-3-9","13:45:23","0","21","[""Other""]","No","Female","1000786","","","","","","","","196","30","57","25","25","",""
"1744","3","rating","canvas-keyboard-response","81","260573","0.0-11.0-0.35","100","2022-3-9","13:45:23","0","21","[""Other""]","No","Female","1000786","","","","","","","","53","85","113","10","17","1",""
"null","null","clear_screen","canvas-keyboard-response","82","260835","0.0-11.0-1.35","100","2022-3-9","13:45:23","0","21","[""Other""]","No","Female","1000786","","","","","","","","53","85","113","10","17","",""
"3308","5","rating","canvas-keyboard-response","83","264156","0.0-11.0-0.36","100","2022-3-9","13:45:23","0","21","[""Other""]","No","Female","1000786","","","","","","","","214","57","57","25","33","1",""
"null","null","clear_screen","canvas-keyboard-response","84","264415","0.0-11.0-1.36","100","2022-3-9","13:45:23","0","21","[""Other""]","No","Female","1000786","","","","","","","","214","57","57","25","33","",""
"4615","6","rating","canvas-keyboard-response","85","269045","0.0-11.0-0.37","100","2022-3-9","13:45:23","0","21","[""Other""]","No","Female","1000786","","","","","","","","280","113","140","33","33","1",""
"null","null","clear_screen","canvas-keyboard-response","86","269307","0.0-11.0-1.37","100","2022-3-9","13:45:23","0","21","[""Other""]","No","Female","1000786","","","","","","","","280","113","140","33","33","",""
"2301","3","rating","canvas-keyboard-response","87","271619","0.0-11.0-0.38","100","2022-3-9","13:45:23","0","21","[""Other""]","No","Female","1000786","","","","","","","","128","30","113","17","40","0",""
"null","null","clear_screen","canvas-keyboard-response","88","271875","0.0-11.0-1.38","100","2022-3-9","13:45:23","0","21","[""Other""]","No","Female","1000786","","","","","","","","128","30","113","17","40","",""
"3174","6","rating","canvas-keyboard-response","89","275061","0.0-11.0-0.39","100","2022-3-9","13:45:23","0","21","[""Other""]","No","Female","1000786","","","","","","","","292","30","85","40","40","1",""
"null","null","clear_screen","canvas-keyboard-response","90","275319","0.0-11.0-1.39","100","2022-3-9","13:45:23","0","21","[""Other""]","No","Female","1000786","","","","","","","","292","30","85","40","40","",""
"1743","3","rating","canvas-keyboard-response","91","277077","0.0-11.0-0.40","100","2022-3-9","13:45:23","0","21","[""Other""]","No","Female","1000786","","","","","","","","209","30","140","25","40","0",""
"null","null","clear_screen","canvas-keyboard-response","92","277338","0.0-11.0-1.40","100","2022-3-9","13:45:23","0","21","[""Other""]","No","Female","1000786","","","","","","","","209","30","140","25","40","",""
"1615","3","rating","canvas-keyboard-response","93","278966","0.0-11.0-0.41","100","2022-3-9","13:45:23","0","21","[""Other""]","No","Female","1000786","","","","","","","","166","113","30","17","25","0",""
"null","null","clear_screen","canvas-keyboard-response","94","279224","0.0-11.0-1.41","100","2022-3-9","13:45:23","0","21","[""Other""]","No","Female","1000786","","","","","","","","166","113","30","17","25","",""
"1863","3","rating","canvas-keyboard-response","95","281101","0.0-11.0-0.42","100","2022-3-9","13:45:23","0","21","[""Other""]","No","Female","1000786","","","","","","","","12","30","85","10","25","1",""
"null","null","clear_screen","canvas-keyboard-response","96","281363","0.0-11.0-1.42","100","2022-3-9","13:45:23","0","21","[""Other""]","No","Female","1000786","","","","","","","","12","30","85","10","25","",""
"1072","3","rating","canvas-keyboard-response","97","282446","0.0-11.0-0.43","100","2022-3-9","13:45:23","0","21","[""Other""]","No","Female","1000786","","","","","","","","146","57","113","17","40","0",""
"null","null","clear_screen","canvas-keyboard-response","98","282704","0.0-11.0-1.43","100","2022-3-9","13:45:23","0","21","[""Other""]","No","Female","1000786","","","","","","","","146","57","113","17","40","",""
"1494","3","rating","canvas-keyboard-response","99","284213","0.0-11.0-0.44","100","2022-3-9","13:45:23","0","21","[""Other""]","No","Female","1000786","","","","","","","","226","85","57","25","33","1",""
"null","null","clear_screen","canvas-keyboard-response","100","284475","0.0-11.0-1.44","100","2022-3-9","13:45:23","0","21","[""Other""]","No","Female","1000786","","","","","","","","226","85","57","25","33","",""
"6341","4","rating","canvas-keyboard-response","101","290829","0.0-11.0-0.45","100","2022-3-9","13:45:23","0","21","[""Other""]","No","Female","1000786","","","","","","","","54","85","140","10","17","0",""
"null","null","clear_screen","canvas-keyboard-response","102","291088","0.0-11.0-1.45","100","2022-3-9","13:45:23","0","21","[""Other""]","No","Female","1000786","","","","","","","","54","85","140","10","17","",""
"1217","4","rating","canvas-keyboard-response","103","292317","0.0-11.0-0.46","100","2022-3-9","13:45:23","0","21","[""Other""]","No","Female","1000786","","","","","","","","151","85","57","17","25","0",""
"null","null","clear_screen","canvas-keyboard-response","104","292574","0.0-11.0-1.46","100","2022-3-9","13:45:23","0","21","[""Other""]","No","Female","1000786","","","","","","","","151","85","57","17","25","",""
"1233","4","rating","canvas-keyboard-response","105","293820","0.0-11.0-0.47","100","2022-3-9","13:45:23","0","21","[""Other""]","No","Female","1000786","","","","","","","","135","57","85","17","25","1",""
"null","null","clear_screen","canvas-keyboard-response","106","294079","0.0-11.0-1.47","100","2022-3-9","13:45:23","0","21","[""Other""]","No","Female","1000786","","","","","","","","135","57","85","17","25","",""
"2718","4","rating","canvas-keyboard-response","107","296813","0.0-11.0-0.48","100","2022-3-9","13:45:23","0","21","[""Other""]","No","Female","1000786","","","","","","","","133","57","30","17","25","0",""
"null","null","clear_screen","canvas-keyboard-response","108","297075","0.0-11.0-1.48","100","2022-3-9","13:45:23","0","21","[""Other""]","No","Female","1000786","","","","","","","","133","57","30","17","25","",""
"1620","2","rating","canvas-keyboard-response","109","298708","0.0-11.0-0.49","100","2022-3-9","13:45:23","0","21","[""Other""]","No","Female","1000786","","","","","","","","246","140","30","25","33","1",""
"null","null","clear_screen","canvas-keyboard-response","110","298969","0.0-11.0-1.49","100","2022-3-9","13:45:23","0","21","[""Other""]","No","Female","1000786","","","","","","","","246","140","30","25","33","",""
"3078","7","rating","canvas-keyboard-response","111","302060","0.0-11.0-0.50","100","2022-3-9","13:45:23","0","21","[""Other""]","No","Female","1000786","","","","","","","","29","57","57","10","17","0",""
"null","null","clear_screen","canvas-keyboard-response","112","302320","0.0-11.0-1.50","100","2022-3-9","13:45:23","0","21","[""Other""]","No","Female","1000786","","","","","","","","29","57","57","10","17","",""
"2689","5","rating","canvas-keyboard-response","113","305019","0.0-11.0-0.51","100","2022-3-9","13:45:23","0","21","[""Other""]","No","Female","1000786","","","","","","","","104","140","113","10","33","0",""
"null","null","clear_screen","canvas-keyboard-response","114","305278","0.0-11.0-1.51","100","2022-3-9","13:45:23","0","21","[""Other""]","No","Female","1000786","","","","","","","","104","140","113","10","33","",""
"2544","4","rating","canvas-keyboard-response","115","307837","0.0-11.0-0.52","100","2022-3-9","13:45:23","0","21","[""Other""]","No","Female","1000786","","","","","","","","253","140","85","25","40","1",""
"null","null","clear_screen","canvas-keyboard-response","116","308095","0.0-11.0-1.52","100","2022-3-9","13:45:23","0","21","[""Other""]","No","Female","1000786","","","","","","","","253","140","85","25","40","",""
"2715","6","rating","canvas-keyboard-response","117","310820","0.0-11.0-0.53","100","2022-3-9","13:45:23","0","21","[""Other""]","No","Female","1000786","","","","","","","","219","57","57","25","40","1",""
"null","null","clear_screen","canvas-keyboard-response","118","311079","0.0-11.0-1.53","100","2022-3-9","13:45:23","0","21","[""Other""]","No","Female","1000786","","","","","","","","219","57","57","25","40","",""
"2446","2","rating","canvas-keyboard-response","119","313532","0.0-11.0-0.54","100","2022-3-9","13:45:23","0","21","[""Other""]","No","Female","1000786","","","","","","","","119","30","140","17","25","0",""
"null","null","clear_screen","canvas-keyboard-response","120","313794","0.0-11.0-1.54","100","2022-3-9","13:45:23","0","21","[""Other""]","No","Female","1000786","","","","","","","","119","30","140","17","25","",""
"5518","5","rating","canvas-keyboard-response","121","319325","0.0-11.0-0.55","100","2022-3-9","13:45:23","0","21","[""Other""]","No","Female","1000786","","","","","","","","48","85","113","10","10","1",""
"null","null","clear_screen","canvas-keyboard-response","122","319586","0.0-11.0-1.55","100","2022-3-9","13:45:23","0","21","[""Other""]","No","Female","1000786","","","","","","","","48","85","113","10","10","",""
"3595","4","rating","canvas-keyboard-response","123","323196","0.0-11.0-0.56","100","2022-3-9","13:45:23","0","21","[""Other""]","No","Female","1000786","","","","","","","","237","113","57","25","33","1",""
"null","null","clear_screen","canvas-keyboard-response","124","323458","0.0-11.0-1.56","100","2022-3-9","13:45:23","0","21","[""Other""]","No","Female","1000786","","","","","","","","237","113","57","25","33","",""
"1390","4","rating","canvas-keyboard-response","125","324860","0.0-11.0-0.57","100","2022-3-9","13:45:23","0","21","[""Other""]","No","Female","1000786","","","","","","","","38","57","30","10","33","1",""
"null","null","clear_screen","canvas-keyboard-response","126","325124","0.0-11.0-1.57","100","2022-3-9","13:45:23","0","21","[""Other""]","No","Female","1000786","","","","","","","","38","57","30","10","33","",""
"3203","4","rating","canvas-keyboard-response","127","328341","0.0-11.0-0.58","100","2022-3-9","13:45:23","0","21","[""Other""]","No","Female","1000786","","","","","","","","36","57","113","10","25","0",""
"null","null","clear_screen","canvas-keyboard-response","128","328604","0.0-11.0-1.58","100","2022-3-9","13:45:23","0","21","[""Other""]","No","Female","1000786","","","","","","","","36","57","113","10","25","",""
"1963","4","rating","canvas-keyboard-response","129","330581","0.0-11.0-0.59","100","2022-3-9","13:45:23","0","21","[""Other""]","No","Female","1000786","","","","","","","","112","30","85","17","17","1",""
"null","null","clear_screen","canvas-keyboard-response","130","330840","0.0-11.0-1.59","100","2022-3-9","13:45:23","0","21","[""Other""]","No","Female","1000786","","","","","","","","112","30","85","17","17","",""
"2446","7","rating","canvas-keyboard-response","131","333301","0.0-11.0-0.60","100","2022-3-9","13:45:23","0","21","[""Other""]","No","Female","1000786","","","","","","","","5","30","30","10","17","1",""
"null","null","clear_screen","canvas-keyboard-response","132","333562","0.0-11.0-1.60","100","2022-3-9","13:45:23","0","21","[""Other""]","No","Female","1000786","","","","","","","","5","30","30","10","17","",""
"3305","5","rating","canvas-keyboard-response","133","336877","0.0-11.0-0.61","100","2022-3-9","13:45:23","0","21","[""Other""]","No","Female","1000786","","","","","","","","197","30","85","25","25","1",""
"null","null","clear_screen","canvas-keyboard-response","134","337137","0.0-11.0-1.61","100","2022-3-9","13:45:23","0","21","[""Other""]","No","Female","1000786","","","","","","","","197","30","85","25","25","",""
"1583","3","rating","canvas-keyboard-response","135","338732","0.0-11.0-0.62","100","2022-3-9","13:45:23","0","21","[""Other""]","No","Female","1000786","","","","","","","","294","30","140","40","40","1",""
"null","null","clear_screen","canvas-keyboard-response","136","338994","0.0-11.0-1.62","100","2022-3-9","13:45:23","0","21","[""Other""]","No","Female","1000786","","","","","","","","294","30","140","40","40","",""
"1920","7","rating","canvas-keyboard-response","137","340925","0.0-11.0-0.63","100","2022-3-9","13:45:23","0","21","[""Other""]","No","Female","1000786","","","","","","","","255","140","140","25","40","1",""
"null","null","clear_screen","canvas-keyboard-response","138","341186","0.0-11.0-1.63","100","2022-3-9","13:45:23","0","21","[""Other""]","No","Female","1000786","","","","","","","","255","140","140","25","40","",""
"1956","5","rating","canvas-keyboard-response","139","343156","0.0-11.0-0.64","100","2022-3-9","13:45:23","0","21","[""Other""]","No","Female","1000786","","","","","","","","65","85","30","10","40","1",""
"null","null","clear_screen","canvas-keyboard-response","140","343418","0.0-11.0-1.64","100","2022-3-9","13:45:23","0","21","[""Other""]","No","Female","1000786","","","","","","","","65","85","30","10","40","",""
"1727","3","rating","canvas-keyboard-response","141","345157","0.0-11.0-0.65","100","2022-3-9","13:45:23","0","21","[""Other""]","No","Female","1000786","","","","","","","","18","30","113","10","33","1",""
"null","null","clear_screen","canvas-keyboard-response","142","345416","0.0-11.0-1.65","100","2022-3-9","13:45:23","0","21","[""Other""]","No","Female","1000786","","","","","","","","18","30","113","10","33","",""
"3800","3","rating","canvas-keyboard-response","143","349229","0.0-11.0-0.66","100","2022-3-9","13:45:23","0","21","[""Other""]","No","Female","1000786","","","","","","","","236","113","30","25","33","0",""
"null","null","clear_screen","canvas-keyboard-response","144","349489","0.0-11.0-1.66","100","2022-3-9","13:45:23","0","21","[""Other""]","No","Female","1000786","","","","","","","","236","113","30","25","33","",""
"919","3","rating","canvas-keyboard-response","145","350421","0.0-11.0-0.67","100","2022-3-9","13:45:23","0","21","[""Other""]","No","Female","1000786","","","","","","","","182","140","57","17","25","0",""
"null","null","clear_screen","canvas-keyboard-response","146","350683","0.0-11.0-1.67","100","2022-3-9","13:45:23","0","21","[""Other""]","No","Female","1000786","","","","","","","","182","140","57","17","25","",""
"1665","7","rating","canvas-keyboard-response","147","352357","0.0-11.0-0.68","100","2022-3-9","13:45:23","0","21","[""Other""]","No","Female","1000786","","","","","","","","190","140","140","17","33","1",""
"null","null","clear_screen","canvas-keyboard-response","148","352616","0.0-11.0-1.68","100","2022-3-9","13:45:23","0","21","[""Other""]","No","Female","1000786","","","","","","","","190","140","140","17","33","",""
"1486","3","rating","canvas-keyboard-response","149","354118","0.0-11.0-0.69","100","2022-3-9","13:45:23","0","21","[""Other""]","No","Female","1000786","","","","","","","","241","113","30","25","40","0",""
"null","null","clear_screen","canvas-keyboard-response","150","354377","0.0-11.0-1.69","100","2022-3-9","13:45:23","0","21","[""Other""]","No","Female","1000786","","","","","","","","241","113","30","25","40","",""
"4312","6","rating","canvas-keyboard-response","151","358701","0.0-11.0-0.70","100","2022-3-9","13:45:23","0","21","[""Other""]","No","Female","1000786","","","","","","","","30","57","85","10","17","0",""
"null","null","clear_screen","canvas-keyboard-response","152","358959","0.0-11.0-1.70","100","2022-3-9","13:45:23","0","21","[""Other""]","No","Female","1000786","","","","","","","","30","57","85","10","17","",""
"3440","3","rating","canvas-keyboard-response","153","362413","0.0-11.0-0.71","100","2022-3-9","13:45:23","0","21","[""Other""]","No","Female","1000786","","","","","","","","129","30","140","17","40","1",""
"null","null","clear_screen","canvas-keyboard-response","154","362673","0.0-11.0-1.71","100","2022-3-9","13:45:23","0","21","[""Other""]","No","Female","1000786","","","","","","","","129","30","140","17","40","",""
"2687","7","rating","canvas-keyboard-response","155","365373","0.0-11.0-0.72","100","2022-3-9","13:45:23","0","21","[""Other""]","No","Female","1000786","","","","","","","","205","30","30","25","40","1",""
"null","null","clear_screen","canvas-keyboard-response","156","365633","0.0-11.0-1.72","100","2022-3-9","13:45:23","0","21","[""Other""]","No","Female","1000786","","","","","","","","205","30","30","25","40","",""
"3973","3","rating","canvas-keyboard-response","157","369621","0.0-11.0-0.73","100","2022-3-9","13:45:23","0","21","[""Other""]","No","Female","1000786","","","","","","","","132","57","140","17","17","1",""
"null","null","clear_screen","canvas-keyboard-response","158","369881","0.0-11.0-1.73","100","2022-3-9","13:45:23","0","21","[""Other""]","No","Female","1000786","","","","","","","","132","57","140","17","17","",""
"1786","3","rating","canvas-keyboard-response","159","371678","0.0-11.0-0.74","100","2022-3-9","13:45:23","0","21","[""Other""]","No","Female","1000786","","","","","","","","251","140","30","25","40","1",""
"null","null","clear_screen","canvas-keyboard-response","160","371938","0.0-11.0-1.74","100","2022-3-9","13:45:23","0","21","[""Other""]","No","Female","1000786","","","","","","","","251","140","30","25","40","",""
"1133","3","rating","canvas-keyboard-response","161","373085","0.0-11.0-0.75","100","2022-3-9","13:45:23","0","21","[""Other""]","No","Female","1000786","","","","","","","","204","30","140","25","33","1",""
"null","null","clear_screen","canvas-keyboard-response","162","373348","0.0-11.0-1.75","100","2022-3-9","13:45:23","0","21","[""Other""]","No","Female","1000786","","","","","","","","204","30","140","25","33","",""
"2759","4","rating","canvas-keyboard-response","163","376117","0.0-11.0-0.76","100","2022-3-9","13:45:23","0","21","[""Other""]","No","Female","1000786","","","","","","","","274","85","140","33","33","1",""
"null","null","clear_screen","canvas-keyboard-response","164","376376","0.0-11.0-1.76","100","2022-3-9","13:45:23","0","21","[""Other""]","No","Female","1000786","","","","","","","","274","85","140","33","33","",""
"1508","4","rating","canvas-keyboard-response","165","377901","0.0-11.0-0.77","100","2022-3-9","13:45:23","0","21","[""Other""]","No","Female","1000786","","","","","","","","72","113","57","10","17","0",""
"null","null","clear_screen","canvas-keyboard-response","166","378160","0.0-11.0-1.77","100","2022-3-9","13:45:23","0","21","[""Other""]","No","Female","1000786","","","","","","","","72","113","57","10","17","",""
"4135","7","rating","canvas-keyboard-response","167","382309","0.0-11.0-0.78","100","2022-3-9","13:45:23","0","21","[""Other""]","No","Female","1000786","","","","","","","","110","140","140","10","40","1",""
"null","null","clear_screen","canvas-keyboard-response","168","382567","0.0-11.0-1.78","100","2022-3-9","13:45:23","0","21","[""Other""]","No","Female","1000786","","","","","","","","110","140","140","10","40","",""
"2507","4","rating","canvas-keyboard-response","169","385085","0.0-11.0-0.79","100","2022-3-9","13:45:23","0","21","[""Other""]","No","Female","1000786","","","","","","","","191","140","30","17","40","1",""
"null","null","clear_screen","canvas-keyboard-response","170","385347","0.0-11.0-1.79","100","2022-3-9","13:45:23","0","21","[""Other""]","No","Female","1000786","","","","","","","","191","140","30","17","40","",""
"1145","3","rating","canvas-keyboard-response","171","386501","0.0-11.0-0.80","100","2022-3-9","13:45:23","0","21","[""Other""]","No","Female","1000786","","","","","","","","258","30","113","33","33","0",""
"null","null","clear_screen","canvas-keyboard-response","172","386762","0.0-11.0-1.80","100","2022-3-9","13:45:23","0","21","[""Other""]","No","Female","1000786","","","","","","","","258","30","113","33","33","",""
"1352","3","rating","canvas-keyboard-response","173","388124","0.0-11.0-0.81","100","2022-3-9","13:45:23","0","21","[""Other""]","No","Female","1000786","","","","","","","","118","30","113","17","25","0",""
"null","null","clear_screen","canvas-keyboard-response","174","388386","0.0-11.0-1.81","100","2022-3-9","13:45:23","0","21","[""Other""]","No","Female","1000786","","","","","","","","118","30","113","17","25","",""
"1632","3","rating","canvas-keyboard-response","175","390029","0.0-11.0-0.82","100","2022-3-9","13:45:23","0","21","[""Other""]","No","Female","1000786","","","","","","","","231","85","57","25","40","0",""
"null","null","clear_screen","canvas-keyboard-response","176","390290","0.0-11.0-1.82","100","2022-3-9","13:45:23","0","21","[""Other""]","No","Female","1000786","","","","","","","","231","85","57","25","40","",""
"2805","6","rating","canvas-keyboard-response","177","393109","0.0-11.0-0.83","100","2022-3-9","13:45:23","0","21","[""Other""]","No","Female","1000786","","","","","","","","276","85","57","33","40","1",""
"null","null","clear_screen","canvas-keyboard-response","178","393370","0.0-11.0-1.83","100","2022-3-9","13:45:23","0","21","[""Other""]","No","Female","1000786","","","","","","","","276","85","57","33","40","",""
"1160","3","rating","canvas-keyboard-response","179","394541","0.0-11.0-0.84","100","2022-3-9","13:45:23","0","21","[""Other""]","No","Female","1000786","","","","","","","","8","30","113","10","17","0",""
"null","null","clear_screen","canvas-keyboard-response","180","394803","0.0-11.0-1.84","100","2022-3-9","13:45:23","0","21","[""Other""]","No","Female","1000786","","","","","","","","8","30","113","10","17","",""
"955","3","rating","canvas-keyboard-response","181","395773","0.0-11.0-0.85","100","2022-3-9","13:45:23","0","21","[""Other""]","No","Female","1000786","","","","","","","","141","57","113","17","33","0",""
"null","null","clear_screen","canvas-keyboard-response","182","396033","0.0-11.0-1.85","100","2022-3-9","13:45:23","0","21","[""Other""]","No","Female","1000786","","","","","","","","141","57","113","17","33","",""
"1912","3","rating","canvas-keyboard-response","183","397957","0.0-11.0-0.86","100","2022-3-9","13:45:23","0","21","[""Other""]","No","Female","1000786","","","","","","","","272","57","140","33","40","1",""
"null","null","clear_screen","canvas-keyboard-response","184","398216","0.0-11.0-1.86","100","2022-3-9","13:45:23","0","21","[""Other""]","No","Female","1000786","","","","","","","","272","57","140","33","40","",""
"1423","3","rating","canvas-keyboard-response","185","399653","0.0-11.0-0.87","100","2022-3-9","13:45:23","0","21","[""Other""]","No","Female","1000786","","","","","","","","78","113","85","10","25","0",""
"null","null","clear_screen","canvas-keyboard-response","186","399914","0.0-11.0-1.87","100","2022-3-9","13:45:23","0","21","[""Other""]","No","Female","1000786","","","","","","","","78","113","85","10","25","",""
"2589","6","rating","canvas-keyboard-response","187","402516","0.0-11.0-0.88","100","2022-3-9","13:45:23","0","21","[""Other""]","No","Female","1000786","","","","","","","","10","30","30","10","25","0",""
"null","null","clear_screen","canvas-keyboard-response","188","402777","0.0-11.0-1.88","100","2022-3-9","13:45:23","0","21","[""Other""]","No","Female","1000786","","","","","","","","10","30","30","10","25","",""
"1430","4","rating","canvas-keyboard-response","189","404221","0.0-11.0-0.89","100","2022-3-9","13:45:23","0","21","[""Other""]","No","Female","1000786","","","","","","","","101","140","30","10","33","1",""
"null","null","clear_screen","canvas-keyboard-response","190","404482","0.0-11.0-1.89","100","2022-3-9","13:45:23","0","21","[""Other""]","No","Female","1000786","","","","","","","","101","140","30","10","33","",""
"2774","4","rating","canvas-keyboard-response","191","407269","0.0-11.0-0.90","100","2022-3-9","13:45:23","0","21","[""Other""]","No","Female","1000786","","","","","","","","140","57","85","17","33","0",""
"null","null","clear_screen","canvas-keyboard-response","192","407528","0.0-11.0-1.90","100","2022-3-9","13:45:23","0","21","[""Other""]","No","Female","1000786","","","","","","","","140","57","85","17","33","",""
"2544","6","rating","canvas-keyboard-response","193","410085","0.0-11.0-0.91","100","2022-3-9","13:45:23","0","21","[""Other""]","No","Female","1000786","","","","","","","","162","85","85","17","40","1",""
"null","null","clear_screen","canvas-keyboard-response","194","410344","0.0-11.0-1.91","100","2022-3-9","13:45:23","0","21","[""Other""]","No","Female","1000786","","","","","","","","162","85","85","17","40","",""
"2282","4","rating","canvas-keyboard-response","195","412637","0.0-11.0-0.92","100","2022-3-9","13:45:23","0","21","[""Other""]","No","Female","1000786","","","","","","","","92","140","57","10","17","1",""
"null","null","clear_screen","canvas-keyboard-response","196","412896","0.0-11.0-1.92","100","2022-3-9","13:45:23","0","21","[""Other""]","No","Female","1000786","","","","","","","","92","140","57","10","17","",""
"2922","6","rating","canvas-keyboard-response","197","415829","0.0-11.0-0.93","100","2022-3-9","13:45:23","0","21","[""Other""]","No","Female","1000786","","","","","","","","232","85","85","25","40","0",""
"null","null","clear_screen","canvas-keyboard-response","198","416088","0.0-11.0-1.93","100","2022-3-9","13:45:23","0","21","[""Other""]","No","Female","1000786","","","","","","","","232","85","85","25","40","",""
"3171","3","rating","canvas-keyboard-response","199","419268","0.0-11.0-0.94","100","2022-3-9","13:45:23","0","21","[""Other""]","No","Female","1000786","","","","","","","","176","113","30","17","40","1",""
"null","null","clear_screen","canvas-keyboard-response","200","419527","0.0-11.0-1.94","100","2022-3-9","13:45:23","0","21","[""Other""]","No","Female","1000786","","","","","","","","176","113","30","17","40","",""
"2956","5","rating","canvas-keyboard-response","201","422493","0.0-11.0-0.95","100","2022-3-9","13:45:23","0","21","[""Other""]","No","Female","1000786","","","","","","","","238","113","85","25","33","1",""
"null","null","clear_screen","canvas-keyboard-response","202","422752","0.0-11.0-1.95","100","2022-3-9","13:45:23","0","21","[""Other""]","No","Female","1000786","","","","","","","","238","113","85","25","33","",""
"6719","3","rating","canvas-keyboard-response","203","429485","0.0-11.0-0.96","100","2022-3-9","13:45:23","0","21","[""Other""]","No","Female","1000786","","","","","","","","187","140","57","17","33","1",""
"null","null","clear_screen","canvas-keyboard-response","204","429746","0.0-11.0-1.96","100","2022-3-9","13:45:23","0","21","[""Other""]","No","Female","1000786","","","","","","","","187","140","57","17","33","",""
"2893","4","rating","canvas-keyboard-response","205","432653","0.0-11.0-0.97","100","2022-3-9","13:45:23","0","21","[""Other""]","No","Female","1000786","","","","","","","","206","30","57","25","40","0",""
"null","null","clear_screen","canvas-keyboard-response","206","432911","0.0-11.0-1.97","100","2022-3-9","13:45:23","0","21","[""Other""]","No","Female","1000786","","","","","","","","206","30","57","25","40","",""
"2906","5","rating","canvas-keyboard-response","207","435830","0.0-11.0-0.98","100","2022-3-9","13:45:23","0","21","[""Other""]","No","Female","1000786","","","","","","","","40","57","85","10","33","0",""
"null","null","clear_screen","canvas-keyboard-response","208","436091","0.0-11.0-1.98","100","2022-3-9","13:45:23","0","21","[""Other""]","No","Female","1000786","","","","","","","","40","57","85","10","33","",""
"2627","7","rating","canvas-keyboard-response","209","438733","0.0-11.0-0.99","100","2022-3-9","13:45:23","0","21","[""Other""]","No","Female","1000786","","","","","","","","210","57","85","25","25","0",""
"null","null","clear_screen","canvas-keyboard-response","210","438994","0.0-11.0-1.99","100","2022-3-9","13:45:23","0","21","[""Other""]","No","Female","1000786","","","","","","","","210","57","85","25","25","",""
"4495","3","rating","canvas-keyboard-response","211","443501","0.0-11.0-0.100","100","2022-3-9","13:45:23","0","21","[""Other""]","No","Female","1000786","","","","","","","","71","113","30","10","17","1",""
"null","null","clear_screen","canvas-keyboard-response","212","443763","0.0-11.0-1.100","100","2022-3-9","13:45:23","0","21","[""Other""]","No","Female","1000786","","","","","","","","71","113","30","10","17","",""
"1204","3","rating","canvas-keyboard-response","213","444981","0.0-11.0-0.101","100","2022-3-9","13:45:23","0","21","[""Other""]","No","Female","1000786","","","","","","","","222","57","140","25","40","0",""
"null","null","clear_screen","canvas-keyboard-response","214","445239","0.0-11.0-1.101","100","2022-3-9","13:45:23","0","21","[""Other""]","No","Female","1000786","","","","","","","","222","57","140","25","40","",""
"1752","3","rating","canvas-keyboard-response","215","447005","0.0-11.0-0.102","100","2022-3-9","13:45:23","0","21","[""Other""]","No","Female","1000786","","","","","","","","90","113","140","10","40","1",""
"null","null","clear_screen","canvas-keyboard-response","216","447264","0.0-11.0-1.102","100","2022-3-9","13:45:23","0","21","[""Other""]","No","Female","1000786","","","","","","","","90","113","140","10","40","",""
"3407","3","rating","canvas-keyboard-response","217","450685","0.0-11.0-0.103","100","2022-3-9","13:45:23","0","21","[""Other""]","No","Female","1000786","","","","","","","","173","113","85","17","33","0",""
"null","null","clear_screen","canvas-keyboard-response","218","450944","0.0-11.0-1.103","100","2022-3-9","13:45:23","0","21","[""Other""]","No","Female","1000786","","","","","","","","173","113","85","17","33","",""
"2906","7","rating","canvas-keyboard-response","219","453861","0.0-11.0-0.104","100","2022-3-9","13:45:23","0","21","[""Other""]","No","Female","1000786","","","","","","","","200","30","30","25","33","0",""
"null","null","clear_screen","canvas-keyboard-response","220","454120","0.0-11.0-1.104","100","2022-3-9","13:45:23","0","21","[""Other""]","No","Female","1000786","","","","","","","","200","30","30","25","33","",""
"1625","4","rating","canvas-keyboard-response","221","455756","0.0-11.0-0.105","100","2022-3-9","13:45:23","0","21","[""Other""]","No","Female","1000786","","","","","","","","234","85","140","25","40","0",""
"null","null","clear_screen","canvas-keyboard-response","222","456018","0.0-11.0-1.105","100","2022-3-9","13:45:23","0","21","[""Other""]","No","Female","1000786","","","","","","","","234","85","140","25","40","",""
"4310","4","rating","canvas-keyboard-response","223","460341","0.0-11.0-0.106","100","2022-3-9","13:45:23","0","21","[""Other""]","No","Female","1000786","","","","","","","","242","113","57","25","40","1",""
"null","null","clear_screen","canvas-keyboard-response","224","460602","0.0-11.0-1.106","100","2022-3-9","13:45:23","0","21","[""Other""]","No","Female","1000786","","","","","","","","242","113","57","25","40","",""
"1181","4","rating","canvas-keyboard-response","225","461797","0.0-11.0-0.107","100","2022-3-9","13:45:23","0","21","[""Other""]","No","Female","1000786","","","","","","","","139","57","57","17","33","1",""
"null","null","clear_screen","canvas-keyboard-response","226","462056","0.0-11.0-1.107","100","2022-3-9","13:45:23","0","21","[""Other""]","No","Female","1000786","","","","","","","","139","57","57","17","33","",""
"3455","6","rating","canvas-keyboard-response","227","465525","0.0-11.0-0.108","100","2022-3-9","13:45:23","0","21","[""Other""]","No","Female","1000786","","","","","","","","125","30","30","17","40","0",""
"null","null","clear_screen","canvas-keyboard-response","228","465783","0.0-11.0-1.108","100","2022-3-9","13:45:23","0","21","[""Other""]","No","Female","1000786","","","","","","","","125","30","30","17","40","",""
"1587","3","rating","canvas-keyboard-response","229","467381","0.0-11.0-0.109","100","2022-3-9","13:45:23","0","21","[""Other""]","No","Female","1000786","","","","","","","","103","140","85","10","33","1",""
"null","null","clear_screen","canvas-keyboard-response","230","467639","0.0-11.0-1.109","100","2022-3-9","13:45:23","0","21","[""Other""]","No","Female","1000786","","","","","","","","103","140","85","10","33","",""
"3685","3","rating","canvas-keyboard-response","231","471333","0.0-11.0-0.110","100","2022-3-9","13:45:23","0","21","[""Other""]","No","Female","1000786","","","","","","","","181","140","30","17","25","1",""
"null","null","clear_screen","canvas-keyboard-response","232","471594","0.0-11.0-1.110","100","2022-3-9","13:45:23","0","21","[""Other""]","No","Female","1000786","","","","","","","","181","140","30","17","25","",""
"2750","4","rating","canvas-keyboard-response","233","474357","0.0-11.0-0.111","100","2022-3-9","13:45:23","0","21","[""Other""]","No","Female","1000786","","","","","","","","150","85","30","17","25","1",""
"null","null","clear_screen","canvas-keyboard-response","234","474620","0.0-11.0-1.111","100","2022-3-9","13:45:23","0","21","[""Other""]","No","Female","1000786","","","","","","","","150","85","30","17","25","",""
"1145","3","rating","canvas-keyboard-response","235","475782","0.0-11.0-0.112","100","2022-3-9","13:45:23","0","21","[""Other""]","No","Female","1000786","","","","","","","","142","57","140","17","33","1",""
"null","null","clear_screen","canvas-keyboard-response","236","476042","0.0-11.0-1.112","100","2022-3-9","13:45:23","0","21","[""Other""]","No","Female","1000786","","","","","","","","142","57","140","17","33","",""
"1240","3","rating","canvas-keyboard-response","237","477293","0.0-11.0-0.113","100","2022-3-9","13:45:23","0","21","[""Other""]","No","Female","1000786","","","","","","","","180","113","140","17","40","0",""
"null","null","clear_screen","canvas-keyboard-response","238","477554","0.0-11.0-1.113","100","2022-3-9","13:45:23","0","21","[""Other""]","No","Female","1000786","","","","","","","","180","113","140","17","40","",""
"1083","3","rating","canvas-keyboard-response","239","478653","0.0-11.0-0.114","100","2022-3-9","13:45:23","0","21","[""Other""]","No","Female","1000786","","","","","","","","183","140","85","17","25","1",""
"null","null","clear_screen","canvas-keyboard-response","240","478915","0.0-11.0-1.114","100","2022-3-9","13:45:23","0","21","[""Other""]","No","Female","1000786","","","","","","","","183","140","85","17","25","",""
"3531","2","rating","canvas-keyboard-response","241","482461","0.0-11.0-0.115","100","2022-3-9","13:45:23","0","21","[""Other""]","No","Female","1000786","","","","","","","","23","30","113","10","40","1",""
"null","null","clear_screen","canvas-keyboard-response","242","482720","0.0-11.0-1.115","100","2022-3-9","13:45:23","0","21","[""Other""]","No","Female","1000786","","","","","","","","23","30","113","10","40","",""
"1626","3","rating","canvas-keyboard-response","243","484357","0.0-11.0-0.116","100","2022-3-9","13:45:23","0","21","[""Other""]","No","Female","1000786","","","","","","","","153","85","113","17","25","0",""
"null","null","clear_screen","canvas-keyboard-response","244","484617","0.0-11.0-1.116","100","2022-3-9","13:45:23","0","21","[""Other""]","No","Female","1000786","","","","","","","","153","85","113","17","25","",""
"969","3","rating","canvas-keyboard-response","245","485596","0.0-11.0-0.117","100","2022-3-9","13:45:23","0","21","[""Other""]","No","Female","1000786","","","","","","","","297","57","140","40","40","0",""
"null","null","clear_screen","canvas-keyboard-response","246","485856","0.0-11.0-1.117","100","2022-3-9","13:45:23","0","21","[""Other""]","No","Female","1000786","","","","","","","","297","57","140","40","40","",""
"6440","4","rating","canvas-keyboard-response","247","492309","0.0-11.0-0.118","100","2022-3-9","13:45:23","0","21","[""Other""]","No","Female","1000786","","","","","","","","6","30","57","10","17","1",""
"null","null","clear_screen","canvas-keyboard-response","248","492570","0.0-11.0-1.118","100","2022-3-9","13:45:23","0","21","[""Other""]","No","Female","1000786","","","","","","","","6","30","57","10","17","",""
"2168","7","rating","canvas-keyboard-response","249","494749","0.0-11.0-0.119","100","2022-3-9","13:45:23","0","21","[""Other""]","No","Female","1000786","","","","","","","","239","113","113","25","33","0",""
"null","null","clear_screen","canvas-keyboard-response","250","495008","0.0-11.0-1.119","100","2022-3-9","13:45:23","0","21","[""Other""]","No","Female","1000786","","","","","","","","239","113","113","25","33","",""
"1998","4","rating","canvas-keyboard-response","251","497021","0.0-11.0-0.120","100","2022-3-9","13:45:23","0","21","[""Other""]","No","Female","1000786","","","","","","","","145","57","85","17","40","1",""
"null","null","clear_screen","canvas-keyboard-response","252","497280","0.0-11.0-1.120","100","2022-3-9","13:45:23","0","21","[""Other""]","No","Female","1000786","","","","","","","","145","57","85","17","40","",""
"1687","3","rating","canvas-keyboard-response","253","498981","0.0-11.0-0.121","100","2022-3-9","13:45:23","0","21","[""Other""]","No","Female","1000786","","","","","","","","69","85","140","10","40","1",""
"null","null","clear_screen","canvas-keyboard-response","254","499239","0.0-11.0-1.121","100","2022-3-9","13:45:23","0","21","[""Other""]","No","Female","1000786","","","","","","","","69","85","140","10","40","",""
"1749","2","rating","canvas-keyboard-response","255","500997","0.0-11.0-0.122","100","2022-3-9","13:45:23","0","21","[""Other""]","No","Female","1000786","","","","","","","","203","30","113","25","33","1",""
"null","null","clear_screen","canvas-keyboard-response","256","501255","0.0-11.0-1.122","100","2022-3-9","13:45:23","0","21","[""Other""]","No","Female","1000786","","","","","","","","203","30","113","25","33","",""
"2901","3","rating","canvas-keyboard-response","257","504165","0.0-11.0-0.123","100","2022-3-9","13:45:23","0","21","[""Other""]","No","Female","1000786","","","","","","","","275","85","30","33","40","1",""
"null","null","clear_screen","canvas-keyboard-response","258","504423","0.0-11.0-1.123","100","2022-3-9","13:45:23","0","21","[""Other""]","No","Female","1000786","","","","","","","","275","85","30","33","40","",""
"2442","7","rating","canvas-keyboard-response","259","506876","0.0-11.0-0.124","100","2022-3-9","13:45:23","0","21","[""Other""]","No","Female","1000786","","","","","","","","95","140","140","10","17","0",""
"null","null","clear_screen","canvas-keyboard-response","260","507135","0.0-11.0-1.124","100","2022-3-9","13:45:23","0","21","[""Other""]","No","Female","1000786","","","","","","","","95","140","140","10","17","",""
"2528","4","rating","canvas-keyboard-response","261","509677","0.0-11.0-0.125","100","2022-3-9","13:45:23","0","21","[""Other""]","No","Female","1000786","","","","","","","","249","140","113","25","33","1",""
"null","null","clear_screen","canvas-keyboard-response","262","509936","0.0-11.0-1.125","100","2022-3-9","13:45:23","0","21","[""Other""]","No","Female","1000786","","","","","","","","249","140","113","25","33","",""
"1515","3","rating","canvas-keyboard-response","263","511461","0.0-11.0-0.126","100","2022-3-9","13:45:23","0","21","[""Other""]","No","Female","1000786","","","","","","","","285","113","140","33","40","0",""
"null","null","clear_screen","canvas-keyboard-response","264","511722","0.0-11.0-1.126","100","2022-3-9","13:45:23","0","21","[""Other""]","No","Female","1000786","","","","","","","","285","113","140","33","40","",""
"5037","5","rating","canvas-keyboard-response","265","516773","0.0-11.0-0.127","100","2022-3-9","13:45:23","0","21","[""Other""]","No","Female","1000786","","","","","","","","170","113","140","17","25","0",""
"null","null","clear_screen","canvas-keyboard-response","266","517032","0.0-11.0-1.127","100","2022-3-9","13:45:23","0","21","[""Other""]","No","Female","1000786","","","","","","","","170","113","140","17","25","",""
"1403","4","rating","canvas-keyboard-response","267","518446","0.0-11.0-0.128","100","2022-3-9","13:45:23","0","21","[""Other""]","No","Female","1000786","","","","","","","","64","85","140","10","33","1",""
"null","null","clear_screen","canvas-keyboard-response","268","518708","0.0-11.0-1.128","100","2022-3-9","13:45:23","0","21","[""Other""]","No","Female","1000786","","","","","","","","64","85","140","10","33","",""
"1534","3","rating","canvas-keyboard-response","269","520253","0.0-11.0-0.129","100","2022-3-9","13:45:23","0","21","[""Other""]","No","Female","1000786","","","","","","","","163","85","113","17","40","1",""
"null","null","clear_screen","canvas-keyboard-response","270","520514","0.0-11.0-1.129","100","2022-3-9","13:45:23","0","21","[""Other""]","No","Female","1000786","","","","","","","","163","85","113","17","40","",""
"2380","6","rating","canvas-keyboard-response","271","522910","0.0-11.0-0.130","100","2022-3-9","13:45:23","0","21","[""Other""]","No","Female","1000786","","","","","","","","74","113","113","10","17","1",""
"null","null","clear_screen","canvas-keyboard-response","272","523168","0.0-11.0-1.130","100","2022-3-9","13:45:23","0","21","[""Other""]","No","Female","1000786","","","","","","","","74","113","113","10","17","",""
"2496","3","rating","canvas-keyboard-response","273","525677","0.0-11.0-0.131","100","2022-3-9","13:45:23","0","21","[""Other""]","No","Female","1000786","","","","","","","","225","85","30","25","33","1",""
"null","null","clear_screen","canvas-keyboard-response","274","525935","0.0-11.0-1.131","100","2022-3-9","13:45:23","0","21","[""Other""]","No","Female","1000786","","","","","","","","225","85","30","25","33","",""
"4492","7","rating","canvas-keyboard-response","275","530437","0.0-11.0-0.132","100","2022-3-9","13:45:23","0","21","[""Other""]","No","Female","1000786","","","","","","","","111","30","57","17","17","0",""
"null","null","clear_screen","canvas-keyboard-response","276","530699","0.0-11.0-1.132","100","2022-3-9","13:45:23","0","21","[""Other""]","No","Female","1000786","","","","","","","","111","30","57","17","17","",""
"2424","5","rating","canvas-keyboard-response","277","533134","0.0-11.0-0.133","100","2022-3-9","13:45:23","0","21","[""Other""]","No","Female","1000786","","","","","","","","116","30","57","17","25","0",""
"null","null","clear_screen","canvas-keyboard-response","278","533393","0.0-11.0-1.133","100","2022-3-9","13:45:23","0","21","[""Other""]","No","Female","1000786","","","","","","","","116","30","57","17","25","",""
"2815","8","rating","canvas-keyboard-response","279","536222","0.0-11.0-0.134","100","2022-3-9","13:45:23","0","21","[""Other""]","No","Female","1000786","","","","","","","","227","85","85","25","33","1",""
"null","null","clear_screen","canvas-keyboard-response","280","536484","0.0-11.0-1.134","100","2022-3-9","13:45:23","0","21","[""Other""]","No","Female","1000786","","","","","","","","227","85","85","25","33","",""
"4716","8","rating","canvas-keyboard-response","281","541214","0.0-11.0-0.135","100","2022-3-9","13:45:23","0","21","[""Other""]","No","Female","1000786","","","","","","","","277","85","85","33","40","0",""
"null","null","clear_screen","canvas-keyboard-response","282","541473","0.0-11.0-1.135","100","2022-3-9","13:45:23","0","21","[""Other""]","No","Female","1000786","","","","","","","","277","85","85","33","40","",""
"2452","5","rating","canvas-keyboard-response","283","543941","0.0-11.0-0.136","100","2022-3-9","13:45:23","0","21","[""Other""]","No","Female","1000786","","","","","","","","175","113","140","17","33","0",""
"null","null","clear_screen","canvas-keyboard-response","284","544202","0.0-11.0-1.136","100","2022-3-9","13:45:23","0","21","[""Other""]","No","Female","1000786","","","","","","","","175","113","140","17","33","",""
"3013","3","rating","canvas-keyboard-response","285","547229","0.0-11.0-0.137","100","2022-3-9","13:45:23","0","21","[""Other""]","No","Female","1000786","","","","","","","","17","30","85","10","33","1",""
"null","null","clear_screen","canvas-keyboard-response","286","547488","0.0-11.0-1.137","100","2022-3-9","13:45:23","0","21","[""Other""]","No","Female","1000786","","","","","","","","17","30","85","10","33","",""
"2306","7","rating","canvas-keyboard-response","287","549806","0.0-11.0-0.138","100","2022-3-9","13:45:23","0","21","[""Other""]","No","Female","1000786","","","","","","","","273","85","113","33","33","1",""
"null","null","clear_screen","canvas-keyboard-response","288","550064","0.0-11.0-1.138","100","2022-3-9","13:45:23","0","21","[""Other""]","No","Female","1000786","","","","","","","","273","85","113","33","33","",""
"1343","6","rating","canvas-keyboard-response","289","551421","0.0-11.0-0.139","100","2022-3-9","13:45:23","0","21","[""Other""]","No","Female","1000786","","","","","","","","138","57","30","17","33","0",""
"null","null","clear_screen","canvas-keyboard-response","290","551680","0.0-11.0-1.139","100","2022-3-9","13:45:23","0","21","[""Other""]","No","Female","1000786","","","","","","","","138","57","30","17","33","",""
"2129","4","rating","canvas-keyboard-response","291","553821","0.0-11.0-0.140","100","2022-3-9","13:45:23","0","21","[""Other""]","No","Female","1000786","","","","","","","","67","85","85","10","40","0",""
"null","null","clear_screen","canvas-keyboard-response","292","554080","0.0-11.0-1.140","100","2022-3-9","13:45:23","0","21","[""Other""]","No","Female","1000786","","","","","","","","67","85","85","10","40","",""
"2576","6","rating","canvas-keyboard-response","293","556669","0.0-11.0-0.141","100","2022-3-9","13:45:23","0","21","[""Other""]","No","Female","1000786","","","","","","","","244","113","113","25","40","0",""
"null","null","clear_screen","canvas-keyboard-response","294","556931","0.0-11.0-1.141","100","2022-3-9","13:45:23","0","21","[""Other""]","No","Female","1000786","","","","","","","","244","113","113","25","40","",""
"1214","3","rating","canvas-keyboard-response","295","558157","0.0-11.0-0.142","100","2022-3-9","13:45:23","0","21","[""Other""]","No","Female","1000786","","","","","","","","281","113","30","33","40","0",""
"null","null","clear_screen","canvas-keyboard-response","296","558415","0.0-11.0-1.142","100","2022-3-9","13:45:23","0","21","[""Other""]","No","Female","1000786","","","","","","","","281","113","30","33","40","",""
"1430","3","rating","canvas-keyboard-response","297","559861","0.0-11.0-0.143","100","2022-3-9","13:45:23","0","21","[""Other""]","No","Female","1000786","","","","","","","","42","57","140","10","33","1",""
"null","null","clear_screen","canvas-keyboard-response","298","560120","0.0-11.0-1.143","100","2022-3-9","13:45:23","0","21","[""Other""]","No","Female","1000786","","","","","","","","42","57","140","10","33","",""
"2019","5","rating","canvas-keyboard-response","299","562149","0.0-11.0-0.144","100","2022-3-9","13:45:23","0","21","[""Other""]","No","Female","1000786","","","","","","","","34","57","57","10","25","0",""
"null","null","clear_screen","canvas-keyboard-response","300","562410","0.0-11.0-1.144","100","2022-3-9","13:45:23","0","21","[""Other""]","No","Female","1000786","","","","","","","","34","57","57","10","25","",""
"2311","4","rating","canvas-keyboard-response","301","564733","0.0-11.0-0.145","100","2022-3-9","13:45:23","0","21","[""Other""]","No","Female","1000786","","","","","","","","243","113","85","25","40","0",""
"null","null","clear_screen","canvas-keyboard-response","302","564990","0.0-11.0-1.145","100","2022-3-9","13:45:23","0","21","[""Other""]","No","Female","1000786","","","","","","","","243","113","85","25","40","",""
"7747","5","rating","canvas-keyboard-response","303","572749","0.0-11.0-0.146","100","2022-3-9","13:45:23","0","21","[""Other""]","No","Female","1000786","","","","","","","","32","57","140","10","17","0",""
"null","null","clear_screen","canvas-keyboard-response","304","573013","0.0-11.0-1.146","100","2022-3-9","13:45:23","0","21","[""Other""]","No","Female","1000786","","","","","","","","32","57","140","10","17","",""
"2082","6","rating","canvas-keyboard-response","305","575109","0.0-11.0-0.147","100","2022-3-9","13:45:23","0","21","[""Other""]","No","Female","1000786","","","","","","","","265","57","85","33","33","0",""
"null","null","clear_screen","canvas-keyboard-response","306","575368","0.0-11.0-1.147","100","2022-3-9","13:45:23","0","21","[""Other""]","No","Female","1000786","","","","","","","","265","57","85","33","33","",""
"8422","3","rating","canvas-keyboard-response","307","583805","0.0-11.0-0.148","100","2022-3-9","13:45:23","0","21","[""Other""]","No","Female","1000786","","","","","","","","58","85","113","10","25","0",""
"null","null","clear_screen","canvas-keyboard-response","308","584066","0.0-11.0-1.148","100","2022-3-9","13:45:23","0","21","[""Other""]","No","Female","1000786","","","","","","","","58","85","113","10","25","",""
"959","3","rating","canvas-keyboard-response","309","585037","0.0-11.0-0.149","100","2022-3-9","13:45:23","0","21","[""Other""]","No","Female","1000786","","","","","","","","136","57","113","17","25","1",""
"null","null","clear_screen","canvas-keyboard-response","310","585296","0.0-11.0-1.149","100","2022-3-9","13:45:23","0","21","[""Other""]","No","Female","1000786","","","","","","","","136","57","113","17","25","",""
"1167","3","rating","canvas-keyboard-response","311","586477","0.0-11.0-0.150","100","2022-3-9","13:45:23","0","21","[""Other""]","No","Female","1000786","","","","","","","","81","113","30","10","33","0",""
"null","null","clear_screen","canvas-keyboard-response","312","586736","0.0-11.0-1.150","100","2022-3-9","13:45:23","0","21","[""Other""]","No","Female","1000786","","","","","","","","81","113","30","10","33","",""
"1008","2","rating","canvas-keyboard-response","313","587757","0.0-11.0-0.151","100","2022-3-9","13:45:23","0","21","[""Other""]","No","Female","1000786","","","","","","","","41","57","113","10","33","1",""
"null","null","clear_screen","canvas-keyboard-response","314","588015","0.0-11.0-1.151","100","2022-3-9","13:45:23","0","21","[""Other""]","No","Female","1000786","","","","","","","","41","57","113","10","33","",""
"1346","2","rating","canvas-keyboard-response","315","589374","0.0-11.0-0.152","100","2022-3-9","13:45:23","0","21","[""Other""]","No","Female","1000786","","","","","","","","7","30","85","10","17","0",""
"93","2","clear_screen","canvas-keyboard-response","316","589477","0.0-11.0-1.152","100","2022-3-9","13:45:23","0","21","[""Other""]","No","Female","1000786","","","","","","","","7","30","85","10","17","",""
"1188","2","rating","canvas-keyboard-response","317","590677","0.0-11.0-0.153","100","2022-3-9","13:45:23","0","21","[""Other""]","No","Female","1000786","","","","","","","","63","85","113","10","33","0",""
"null","null","clear_screen","canvas-keyboard-response","318","590939","0.0-11.0-1.153","100","2022-3-9","13:45:23","0","21","[""Other""]","No","Female","1000786","","","","","","","","63","85","113","10","33","",""
"1164","2","rating","canvas-keyboard-response","319","592118","0.0-11.0-0.154","100","2022-3-9","13:45:23","0","21","[""Other""]","No","Female","1000786","","","","","","","","229","85","140","25","33","0",""
"null","null","clear_screen","canvas-keyboard-response","320","592377","0.0-11.0-1.154","100","2022-3-9","13:45:23","0","21","[""Other""]","No","Female","1000786","","","","","","","","229","85","140","25","33","",""
"3854","2","rating","canvas-keyboard-response","321","596245","0.0-11.0-0.155","100","2022-3-9","13:45:23","0","21","[""Other""]","No","Female","1000786","","","","","","","","218","57","30","25","40","1",""
"null","null","clear_screen","canvas-keyboard-response","322","596507","0.0-11.0-1.155","100","2022-3-9","13:45:23","0","21","[""Other""]","No","Female","1000786","","","","","","","","218","57","30","25","40","",""
"1235","2","rating","canvas-keyboard-response","323","597749","0.0-11.0-0.156","100","2022-3-9","13:45:23","0","21","[""Other""]","No","Female","1000786","","","","","","","","9","30","140","10","17","1",""
"null","null","clear_screen","canvas-keyboard-response","324","598011","0.0-11.0-1.156","100","2022-3-9","13:45:23","0","21","[""Other""]","No","Female","1000786","","","","","","","","9","30","140","10","17","",""
"1040","2","rating","canvas-keyboard-response","325","599061","0.0-11.0-0.157","100","2022-3-9","13:45:23","0","21","[""Other""]","No","Female","1000786","","","","","","","","114","30","140","17","17","0",""
"null","null","clear_screen","canvas-keyboard-response","326","599324","0.0-11.0-1.157","100","2022-3-9","13:45:23","0","21","[""Other""]","No","Female","1000786","","","","","","","","114","30","140","17","17","",""
"3139","7","rating","canvas-keyboard-response","327","602478","0.0-11.0-0.158","100","2022-3-9","13:45:23","0","21","[""Other""]","No","Female","1000786","","","","","","","","152","85","85","17","25","0",""
"null","null","clear_screen","canvas-keyboard-response","328","602740","0.0-11.0-1.158","100","2022-3-9","13:45:23","0","21","[""Other""]","No","Female","1000786","","","","","","","","152","85","85","17","25","",""
"3002","5","rating","canvas-keyboard-response","329","605758","0.0-11.0-0.159","100","2022-3-9","13:45:23","0","21","[""Other""]","No","Female","1000786","","","","","","","","79","113","113","10","25","0",""
"null","null","clear_screen","canvas-keyboard-response","330","606018","0.0-11.0-1.159","100","2022-3-9","13:45:23","0","21","[""Other""]","No","Female","1000786","","","","","","","","79","113","113","10","25","",""
"1489","4","rating","canvas-keyboard-response","331","607517","0.0-11.0-0.160","100","2022-3-9","13:45:23","0","21","[""Other""]","No","Female","1000786","","","","","","","","167","113","57","17","25","0",""
"null","null","clear_screen","canvas-keyboard-response","332","607777","0.0-11.0-1.160","100","2022-3-9","13:45:23","0","21","[""Other""]","No","Female","1000786","","","","","","","","167","113","57","17","25","",""
"3528","5","rating","canvas-keyboard-response","333","611318","0.0-11.0-0.161","100","2022-3-9","13:45:23","0","21","[""Other""]","No","Female","1000786","","","","","","","","126","30","57","17","40","0",""
"null","null","clear_screen","canvas-keyboard-response","334","611582","0.0-11.0-1.161","100","2022-3-9","13:45:23","0","21","[""Other""]","No","Female","1000786","","","","","","","","126","30","57","17","40","",""
"3602","3","rating","canvas-keyboard-response","335","615197","0.0-11.0-0.162","100","2022-3-9","13:45:23","0","21","[""Other""]","No","Female","1000786","","","","","","","","19","30","140","10","33","1",""
"null","null","clear_screen","canvas-keyboard-response","336","615456","0.0-11.0-1.162","100","2022-3-9","13:45:23","0","21","[""Other""]","No","Female","1000786","","","","","","","","19","30","140","10","33","",""
"865","3","rating","canvas-keyboard-response","337","616333","0.0-11.0-0.163","100","2022-3-9","13:45:23","0","21","[""Other""]","No","Female","1000786","","","","","","","","76","113","30","10","25","0",""
"null","null","clear_screen","canvas-keyboard-response","338","616593","0.0-11.0-1.163","100","2022-3-9","13:45:23","0","21","[""Other""]","No","Female","1000786","","","","","","","","76","113","30","10","25","",""
"2567","5","rating","canvas-keyboard-response","339","619173","0.0-11.0-0.164","100","2022-3-9","13:45:23","0","21","[""Other""]","No","Female","1000786","","","","","","","","195","140","140","17","40","0",""
"null","null","clear_screen","canvas-keyboard-response","340","619431","0.0-11.0-1.164","100","2022-3-9","13:45:23","0","21","[""Other""]","No","Female","1000786","","","","","","","","195","140","140","17","40","",""
"1135","3","rating","canvas-keyboard-response","341","620581","0.0-11.0-0.165","100","2022-3-9","13:45:23","0","21","[""Other""]","No","Female","1000786","","","","","","","","102","140","57","10","33","1",""
"null","null","clear_screen","canvas-keyboard-response","342","620840","0.0-11.0-1.165","100","2022-3-9","13:45:23","0","21","[""Other""]","No","Female","1000786","","","","","","","","102","140","57","10","33","",""
"863","3","rating","canvas-keyboard-response","343","621718","0.0-11.0-0.166","100","2022-3-9","13:45:23","0","21","[""Other""]","No","Female","1000786","","","","","","","","257","30","85","33","33","1",""
"null","null","clear_screen","canvas-keyboard-response","344","621980","0.0-11.0-1.166","100","2022-3-9","13:45:23","0","21","[""Other""]","No","Female","1000786","","","","","","","","257","30","85","33","33","",""
"876","3","rating","canvas-keyboard-response","345","622869","0.0-11.0-0.167","100","2022-3-9","13:45:23","0","21","[""Other""]","No","Female","1000786","","","","","","","","289","140","113","33","40","1",""
"null","null","clear_screen","canvas-keyboard-response","346","623128","0.0-11.0-1.167","100","2022-3-9","13:45:23","0","21","[""Other""]","No","Female","1000786","","","","","","","","289","140","113","33","40","",""
"3599","3","rating","canvas-keyboard-response","347","626741","0.0-11.0-0.168","100","2022-3-9","13:45:23","0","21","[""Other""]","No","Female","1000786","","","","","","","","171","113","30","17","33","1",""
"null","null","clear_screen","canvas-keyboard-response","348","626999","0.0-11.0-1.168","100","2022-3-9","13:45:23","0","21","[""Other""]","No","Female","1000786","","","","","","","","171","113","30","17","33","",""
"1049","3","rating","canvas-keyboard-response","349","628061","0.0-11.0-0.169","100","2022-3-9","13:45:23","0","21","[""Other""]","No","Female","1000786","","","","","","","","89","113","113","10","40","1",""
"null","null","clear_screen","canvas-keyboard-response","350","628323","0.0-11.0-1.169","100","2022-3-9","13:45:23","0","21","[""Other""]","No","Female","1000786","","","","","","","","89","113","113","10","40","",""
"1028","3","rating","canvas-keyboard-response","351","629364","0.0-11.0-0.170","100","2022-3-9","13:45:23","0","21","[""Other""]","No","Female","1000786","","","","","","","","293","30","113","40","40","1",""
"null","null","clear_screen","canvas-keyboard-response","352","629624","0.0-11.0-1.170","100","2022-3-9","13:45:23","0","21","[""Other""]","No","Female","1000786","","","","","","","","293","30","113","40","40","",""
"1080","3","rating","canvas-keyboard-response","353","630717","0.0-11.0-0.171","100","2022-3-9","13:45:23","0","21","[""Other""]","No","Female","1000786","","","","","","","","230","85","30","25","40","1",""
"null","null","clear_screen","canvas-keyboard-response","354","630975","0.0-11.0-1.171","100","2022-3-9","13:45:23","0","21","[""Other""]","No","Female","1000786","","","","","","","","230","85","30","25","40","",""
"3408","6","rating","canvas-keyboard-response","355","634397","0.0-11.0-0.172","100","2022-3-9","13:45:23","0","21","[""Other""]","No","Female","1000786","","","","","","","","261","30","57","33","40","1",""
"null","null","clear_screen","canvas-keyboard-response","356","634656","0.0-11.0-1.172","100","2022-3-9","13:45:23","0","21","[""Other""]","No","Female","1000786","","","","","","","","261","30","57","33","40","",""
"2407","5","rating","canvas-keyboard-response","357","637076","0.0-11.0-0.173","100","2022-3-9","13:45:23","0","21","[""Other""]","No","Female","1000786","","","","","","","","121","30","57","17","33","0",""
"null","null","clear_screen","canvas-keyboard-response","358","637338","0.0-11.0-1.173","100","2022-3-9","13:45:23","0","21","[""Other""]","No","Female","1000786","","","","","","","","121","30","57","17","33","",""
"2399","4","rating","canvas-keyboard-response","359","639749","0.0-11.0-0.174","100","2022-3-9","13:45:23","0","21","[""Other""]","No","Female","1000786","","","","","","","","39","57","57","10","33","1",""
"null","null","clear_screen","canvas-keyboard-response","360","640008","0.0-11.0-1.174","100","2022-3-9","13:45:23","0","21","[""Other""]","No","Female","1000786","","","","","","","","39","57","57","10","33","",""
"1972","6","rating","canvas-keyboard-response","361","641989","0.0-11.0-0.175","100","2022-3-9","13:45:23","0","21","[""Other""]","No","Female","1000786","","","","","","","","168","113","85","17","25","0",""
"null","null","clear_screen","canvas-keyboard-response","362","642250","0.0-11.0-1.175","100","2022-3-9","13:45:23","0","21","[""Other""]","No","Female","1000786","","","","","","","","168","113","85","17","25","",""
"1647","4","rating","canvas-keyboard-response","363","643910","0.0-11.0-0.176","100","2022-3-9","13:45:23","0","21","[""Other""]","No","Female","1000786","","","","","","","","240","113","140","25","33","0",""
"null","null","clear_screen","canvas-keyboard-response","364","644173","0.0-11.0-1.176","100","2022-3-9","13:45:23","0","21","[""Other""]","No","Female","1000786","","","","","","","","240","113","140","25","33","",""
"2521","6","rating","canvas-keyboard-response","365","646709","0.0-11.0-0.177","100","2022-3-9","13:45:23","0","21","[""Other""]","No","Female","1000786","","","","","","","","268","57","30","33","40","0",""
"null","null","clear_screen","canvas-keyboard-response","366","646969","0.0-11.0-1.177","100","2022-3-9","13:45:23","0","21","[""Other""]","No","Female","1000786","","","","","","","","268","57","30","33","40","",""
"2202","4","rating","canvas-keyboard-response","367","649181","0.0-11.0-0.178","100","2022-3-9","13:45:23","0","21","[""Other""]","No","Female","1000786","","","","","","","","26","57","113","10","10","1",""
"null","null","clear_screen","canvas-keyboard-response","368","649443","0.0-11.0-1.178","100","2022-3-9","13:45:23","0","21","[""Other""]","No","Female","1000786","","","","","","","","26","57","113","10","10","",""
"1277","5","rating","canvas-keyboard-response","369","650733","0.0-11.0-0.179","100","2022-3-9","13:45:23","0","21","[""Other""]","No","Female","1000786","","","","","","","","212","57","140","25","25","1",""
"null","null","clear_screen","canvas-keyboard-response","370","650993","0.0-11.0-1.179","100","2022-3-9","13:45:23","0","21","[""Other""]","No","Female","1000786","","","","","","","","212","57","140","25","25","",""
"2582","7","rating","canvas-keyboard-response","371","653589","0.0-11.0-0.180","100","2022-3-9","13:45:23","0","21","[""Other""]","No","Female","1000786","","","","","","","","185","140","140","17","25","1",""
"null","null","clear_screen","canvas-keyboard-response","372","653847","0.0-11.0-1.180","100","2022-3-9","13:45:23","0","21","[""Other""]","No","Female","1000786","","","","","","","","185","140","140","17","25","",""
"2124","5","rating","canvas-keyboard-response","373","655982","0.0-11.0-0.181","100","2022-3-9","13:45:23","0","21","[""Other""]","No","Female","1000786","","","","","","","","188","140","85","17","33","0",""
"null","null","clear_screen","canvas-keyboard-response","374","656241","0.0-11.0-1.181","100","2022-3-9","13:45:23","0","21","[""Other""]","No","Female","1000786","","","","","","","","188","140","85","17","33","",""
"3148","6","rating","canvas-keyboard-response","375","659404","0.0-11.0-0.182","100","2022-3-9","13:45:23","0","21","[""Other""]","No","Female","1000786","","","","","","","","270","57","85","33","40","0",""
"null","null","clear_screen","canvas-keyboard-response","376","659666","0.0-11.0-1.182","100","2022-3-9","13:45:23","0","21","[""Other""]","No","Female","1000786","","","","","","","","270","57","85","33","40","",""
"3513","5","rating","canvas-keyboard-response","377","663190","0.0-11.0-0.183","100","2022-3-9","13:45:23","0","21","[""Other""]","No","Female","1000786","","","","","","","","93","140","85","10","17","0",""
"null","null","clear_screen","canvas-keyboard-response","378","663449","0.0-11.0-1.183","100","2022-3-9","13:45:23","0","21","[""Other""]","No","Female","1000786","","","","","","","","93","140","85","10","17","",""
"4053","5","rating","canvas-keyboard-response","379","667518","0.0-11.0-0.184","100","2022-3-9","13:45:23","0","21","[""Other""]","No","Female","1000786","","","","","","","","20","30","30","10","40","1",""
"null","null","clear_screen","canvas-keyboard-response","380","667780","0.0-11.0-1.184","100","2022-3-9","13:45:23","0","21","[""Other""]","No","Female","1000786","","","","","","","","20","30","30","10","40","",""
"1948","5","rating","canvas-keyboard-response","381","669741","0.0-11.0-0.185","100","2022-3-9","13:45:23","0","21","[""Other""]","No","Female","1000786","","","","","","","","105","140","140","10","33","1",""
"null","null","clear_screen","canvas-keyboard-response","382","670000","0.0-11.0-1.185","100","2022-3-9","13:45:23","0","21","[""Other""]","No","Female","1000786","","","","","","","","105","140","140","10","33","",""
"1971","4","rating","canvas-keyboard-response","383","671982","0.0-11.0-0.186","100","2022-3-9","13:45:23","0","21","[""Other""]","No","Female","1000786","","","","","","","","174","113","113","17","33","0",""
"null","null","clear_screen","canvas-keyboard-response","384","672244","0.0-11.0-1.186","100","2022-3-9","13:45:23","0","21","[""Other""]","No","Female","1000786","","","","","","","","174","113","113","17","33","",""
"2403","4","rating","canvas-keyboard-response","385","674660","0.0-11.0-0.187","100","2022-3-9","13:45:23","0","21","[""Other""]","No","Female","1000786","","","","","","","","127","30","85","17","40","1",""
"null","null","clear_screen","canvas-keyboard-response","386","674918","0.0-11.0-1.187","100","2022-3-9","13:45:23","0","21","[""Other""]","No","Female","1000786","","","","","","","","127","30","85","17","40","",""
"1112","3","rating","canvas-keyboard-response","387","676045","0.0-11.0-0.188","100","2022-3-9","13:45:23","0","21","[""Other""]","No","Female","1000786","","","","","","","","259","30","140","33","33","0",""
"null","null","clear_screen","canvas-keyboard-response","388","676307","0.0-11.0-1.188","100","2022-3-9","13:45:23","0","21","[""Other""]","No","Female","1000786","","","","","","","","259","30","140","33","33","",""
"4415","7","rating","canvas-keyboard-response","389","680733","0.0-11.0-0.189","100","2022-3-9","13:45:23","0","21","[""Other""]","No","Female","1000786","","","","","","","","165","113","140","17","17","0",""
"null","null","clear_screen","canvas-keyboard-response","390","680993","0.0-11.0-1.189","100","2022-3-9","13:45:23","0","21","[""Other""]","No","Female","1000786","","","","","","","","165","113","140","17","17","",""
"3084","5","rating","canvas-keyboard-response","391","684093","0.0-11.0-0.190","100","2022-3-9","13:45:23","0","21","[""Other""]","No","Female","1000786","","","","","","","","122","30","85","17","33","0",""
"null","null","clear_screen","canvas-keyboard-response","392","684352","0.0-11.0-1.190","100","2022-3-9","13:45:23","0","21","[""Other""]","No","Female","1000786","","","","","","","","122","30","85","17","33","",""
"4466","4","rating","canvas-keyboard-response","393","688829","0.0-11.0-0.191","100","2022-3-9","13:45:23","0","21","[""Other""]","No","Female","1000786","","","","","","","","207","30","85","25","40","1",""
"null","null","clear_screen","canvas-keyboard-response","394","689090","0.0-11.0-1.191","100","2022-3-9","13:45:23","0","21","[""Other""]","No","Female","1000786","","","","","","","","207","30","85","25","40","",""
"1461","3","rating","canvas-keyboard-response","395","690565","0.0-11.0-0.192","100","2022-3-9","13:45:23","0","21","[""Other""]","No","Female","1000786","","","","","","","","45","57","85","10","40","0",""
"null","null","clear_screen","canvas-keyboard-response","396","690825","0.0-11.0-1.192","100","2022-3-9","13:45:23","0","21","[""Other""]","No","Female","1000786","","","","","","","","45","57","85","10","40","",""
"3614","6","rating","canvas-keyboard-response","397","694453","0.0-11.0-0.193","100","2022-3-9","13:45:23","0","21","[""Other""]","No","Female","1000786","","","","","","","","28","57","30","10","17","1",""
"null","null","clear_screen","canvas-keyboard-response","398","694714","0.0-11.0-1.193","100","2022-3-9","13:45:23","0","21","[""Other""]","No","Female","1000786","","","","","","","","28","57","30","10","17","",""
"1929","8","rating","canvas-keyboard-response","399","696653","0.0-11.0-0.194","100","2022-3-9","13:45:23","0","21","[""Other""]","No","Female","1000786","","","","","","","","115","30","30","17","25","0",""
"null","null","clear_screen","canvas-keyboard-response","400","696914","0.0-11.0-1.194","100","2022-3-9","13:45:23","0","21","[""Other""]","No","Female","1000786","","","","","","","","115","30","30","17","25","",""
"3357","5","rating","canvas-keyboard-response","401","700285","0.0-11.0-0.195","100","2022-3-9","13:45:23","0","21","[""Other""]","No","Female","1000786","","","","","","","","44","57","57","10","40","1",""
"null","null","clear_screen","canvas-keyboard-response","402","700546","0.0-11.0-1.195","100","2022-3-9","13:45:23","0","21","[""Other""]","No","Female","1000786","","","","","","","","44","57","57","10","40","",""
"3068","4","rating","canvas-keyboard-response","403","703629","0.0-11.0-0.196","100","2022-3-9","13:45:23","0","21","[""Other""]","No","Female","1000786","","","","","","","","31","57","113","10","17","0",""
"null","null","clear_screen","canvas-keyboard-response","404","703888","0.0-11.0-1.196","100","2022-3-9","13:45:23","0","21","[""Other""]","No","Female","1000786","","","","","","","","31","57","113","10","17","",""
"1921","7","rating","canvas-keyboard-response","405","705821","0.0-11.0-0.197","100","2022-3-9","13:45:23","0","21","[""Other""]","No","Female","1000786","","","","","","","","169","113","113","17","25","0",""
"null","null","clear_screen","canvas-keyboard-response","406","706082","0.0-11.0-1.197","100","2022-3-9","13:45:23","0","21","[""Other""]","No","Female","1000786","","","","","","","","169","113","113","17","25","",""
"2567","6","rating","canvas-keyboard-response","407","708661","0.0-11.0-0.198","100","2022-3-9","13:45:23","0","21","[""Other""]","No","Female","1000786","","","","","","","","120","30","30","17","33","1",""
"null","null","clear_screen","canvas-keyboard-response","408","708920","0.0-11.0-1.198","100","2022-3-9","13:45:23","0","21","[""Other""]","No","Female","1000786","","","","","","","","120","30","30","17","33","",""
"1457","3","rating","canvas-keyboard-response","409","710389","0.0-11.0-0.199","100","2022-3-9","13:45:23","0","21","[""Other""]","No","Female","1000786","","","","","","","","263","30","113","33","40","0",""
"null","null","clear_screen","canvas-keyboard-response","410","710649","0.0-11.0-1.199","100","2022-3-9","13:45:23","0","21","[""Other""]","No","Female","1000786","","","","","","","","263","30","113","33","40","",""
"2799","5","rating","canvas-keyboard-response","411","713461","0.0-11.0-0.200","100","2022-3-9","13:45:23","0","21","[""Other""]","No","Female","1000786","","","","","","","","271","57","113","33","40","1",""
"null","null","clear_screen","canvas-keyboard-response","412","713723","0.0-11.0-1.200","100","2022-3-9","13:45:23","0","21","[""Other""]","No","Female","1000786","","","","","","","","271","57","113","33","40","",""
"3287","6","rating","canvas-keyboard-response","413","717020","0.0-11.0-0.201","100","2022-3-9","13:45:23","0","21","[""Other""]","No","Female","1000786","","","","","","","","296","57","113","40","40","1",""
"null","null","clear_screen","canvas-keyboard-response","414","717278","0.0-11.0-1.201","100","2022-3-9","13:45:23","0","21","[""Other""]","No","Female","1000786","","","","","","","","296","57","113","40","40","",""
"7806","4","rating","canvas-keyboard-response","415","725093","0.0-11.0-0.202","100","2022-3-9","13:45:23","0","21","[""Other""]","No","Female","1000786","","","","","","","","221","57","113","25","40","0",""
"null","null","clear_screen","canvas-keyboard-response","416","725354","0.0-11.0-1.202","100","2022-3-9","13:45:23","0","21","[""Other""]","No","Female","1000786","","","","","","","","221","57","113","25","40","",""
"1659","2","rating","canvas-keyboard-response","417","727028","0.0-11.0-0.203","100","2022-3-9","13:45:23","0","21","[""Other""]","No","Female","1000786","","","","","","","","47","57","140","10","40","0",""
"null","null","clear_screen","canvas-keyboard-response","418","727291","0.0-11.0-1.203","100","2022-3-9","13:45:23","0","21","[""Other""]","No","Female","1000786","","","","","","","","47","57","140","10","40","",""
"2179","5","rating","canvas-keyboard-response","419","729485","0.0-11.0-0.204","100","2022-3-9","13:45:23","0","21","[""Other""]","No","Female","1000786","","","","","","","","213","57","30","25","33","0",""
"null","null","clear_screen","canvas-keyboard-response","420","729748","0.0-11.0-1.204","100","2022-3-9","13:45:23","0","21","[""Other""]","No","Female","1000786","","","","","","","","213","57","30","25","33","",""
"1191","4","rating","canvas-keyboard-response","421","730950","0.0-11.0-0.205","100","2022-3-9","13:45:23","0","21","[""Other""]","No","Female","1000786","","","","","","","","11","30","57","10","25","1",""
"null","null","clear_screen","canvas-keyboard-response","422","731209","0.0-11.0-1.205","100","2022-3-9","13:45:23","0","21","[""Other""]","No","Female","1000786","","","","","","","","11","30","57","10","25","",""
"3456","6","rating","canvas-keyboard-response","423","734678","0.0-11.0-0.206","100","2022-3-9","13:45:23","0","21","[""Other""]","No","Female","1000786","","","","","","","","283","113","85","33","40","0",""
"null","null","clear_screen","canvas-keyboard-response","424","734937","0.0-11.0-1.206","100","2022-3-9","13:45:23","0","21","[""Other""]","No","Female","1000786","","","","","","","","283","113","85","33","40","",""
"5596","4","rating","canvas-keyboard-response","425","740550","0.0-11.0-0.207","100","2022-3-9","13:45:23","0","21","[""Other""]","No","Female","1000786","","","","","","","","287","140","57","33","40","0",""
"null","null","clear_screen","canvas-keyboard-response","426","740809","0.0-11.0-1.207","100","2022-3-9","13:45:23","0","21","[""Other""]","No","Female","1000786","","","","","","","","287","140","57","33","40","",""
"2242","4","rating","canvas-keyboard-response","427","743061","0.0-11.0-0.208","100","2022-3-9","13:45:23","0","21","[""Other""]","No","Female","1000786","","","","","","","","269","57","57","33","40","0",""
"null","null","clear_screen","canvas-keyboard-response","428","743320","0.0-11.0-1.208","100","2022-3-9","13:45:23","0","21","[""Other""]","No","Female","1000786","","","","","","","","269","57","57","33","40","",""
"906","3","rating","canvas-keyboard-response","429","744237","0.0-11.0-0.209","100","2022-3-9","13:45:23","0","21","[""Other""]","No","Female","1000786","","","","","","","","117","30","85","17","25","1",""
"null","null","clear_screen","canvas-keyboard-response","430","744496","0.0-11.0-1.209","100","2022-3-9","13:45:23","0","21","[""Other""]","No","Female","1000786","","","","","","","","117","30","85","17","25","",""
"850","3","rating","canvas-keyboard-response","431","745357","0.0-11.0-0.210","100","2022-3-9","13:45:23","0","21","[""Other""]","No","Female","1000786","","","","","","","","155","85","30","17","33","1",""
"null","null","clear_screen","canvas-keyboard-response","432","745617","0.0-11.0-1.210","100","2022-3-9","13:45:23","0","21","[""Other""]","No","Female","1000786","","","","","","","","155","85","30","17","33","",""
"822","3","rating","canvas-keyboard-response","433","746454","0.0-11.0-0.211","100","2022-3-9","13:45:23","0","21","[""Other""]","No","Female","1000786","","","","","","","","4","30","140","10","10","1",""
"null","null","clear_screen","canvas-keyboard-response","434","746714","0.0-11.0-1.211","100","2022-3-9","13:45:23","0","21","[""Other""]","No","Female","1000786","","","","","","","","4","30","140","10","10","",""
"2355","5","rating","canvas-keyboard-response","435","749077","0.0-11.0-0.212","100","2022-3-9","13:45:23","0","21","[""Other""]","No","Female","1000786","","","","","","","","217","57","140","25","33","0",""
"null","null","clear_screen","canvas-keyboard-response","436","749338","0.0-11.0-1.212","100","2022-3-9","13:45:23","0","21","[""Other""]","No","Female","1000786","","","","","","","","217","57","140","25","33","",""
"1487","4","rating","canvas-keyboard-response","437","750836","0.0-11.0-0.213","100","2022-3-9","13:45:23","0","21","[""Other""]","No","Female","1000786","","","","","","","","56","85","57","10","25","1",""
"null","null","clear_screen","canvas-keyboard-response","438","751095","0.0-11.0-1.213","100","2022-3-9","13:45:23","0","21","[""Other""]","No","Female","1000786","","","","","","","","56","85","57","10","25","",""
"1288","3","rating","canvas-keyboard-response","439","752398","0.0-11.0-0.214","100","2022-3-9","13:45:23","0","21","[""Other""]","No","Female","1000786","","","","","","","","189","140","113","17","33","1",""
"null","null","clear_screen","canvas-keyboard-response","440","752656","0.0-11.0-1.214","100","2022-3-9","13:45:23","0","21","[""Other""]","No","Female","1000786","","","","","","","","189","140","113","17","33","",""
"2839","6","rating","canvas-keyboard-response","441","755509","0.0-11.0-0.215","100","2022-3-9","13:45:23","0","21","[""Other""]","No","Female","1000786","","","","","","","","156","85","57","17","33","0",""
"null","null","clear_screen","canvas-keyboard-response","442","755769","0.0-11.0-1.215","100","2022-3-9","13:45:23","0","21","[""Other""]","No","Female","1000786","","","","","","","","156","85","57","17","33","",""
"1322","5","rating","canvas-keyboard-response","443","757101","0.0-11.0-0.216","100","2022-3-9","13:45:23","0","21","[""Other""]","No","Female","1000786","","","","","","","","60","85","30","10","33","0",""
"null","null","clear_screen","canvas-keyboard-response","444","757359","0.0-11.0-1.216","100","2022-3-9","13:45:23","0","21","[""Other""]","No","Female","1000786","","","","","","","","60","85","30","10","33","",""
"1579","4","rating","canvas-keyboard-response","445","758949","0.0-11.0-0.217","100","2022-3-9","13:45:23","0","21","[""Other""]","No","Female","1000786","","","","","","","","131","57","113","17","17","1",""
"null","null","clear_screen","canvas-keyboard-response","446","759211","0.0-11.0-1.217","100","2022-3-9","13:45:23","0","21","[""Other""]","No","Female","1000786","","","","","","","","131","57","113","17","17","",""
"1716","7","rating","canvas-keyboard-response","447","760940","0.0-11.0-0.218","100","2022-3-9","13:45:23","0","21","[""Other""]","No","Female","1000786","","","","","","","","298","85","113","40","40","1",""
"null","null","clear_screen","canvas-keyboard-response","448","761199","0.0-11.0-1.218","100","2022-3-9","13:45:23","0","21","[""Other""]","No","Female","1000786","","","","","","","","298","85","113","40","40","",""
"1686","4","rating","canvas-keyboard-response","449","762900","0.0-11.0-0.219","100","2022-3-9","13:45:23","0","21","[""Other""]","No","Female","1000786","","","","","","","","300","113","140","40","40","0",""
"null","null","clear_screen","canvas-keyboard-response","450","763161","0.0-11.0-1.219","100","2022-3-9","13:45:23","0","21","[""Other""]","No","Female","1000786","","","","","","","","300","113","140","40","40","",""
"1121","4","rating","canvas-keyboard-response","451","764293","0.0-11.0-0.220","100","2022-3-9","13:45:23","0","21","[""Other""]","No","Female","1000786","","","","","","","","2","30","85","10","10","1",""
"null","null","clear_screen","canvas-keyboard-response","452","764554","0.0-11.0-1.220","100","2022-3-9","13:45:23","0","21","[""Other""]","No","Female","1000786","","","","","","","","2","30","85","10","10","",""
"2719","6","rating","canvas-keyboard-response","453","767285","0.0-11.0-0.221","100","2022-3-9","13:45:23","0","21","[""Other""]","No","Female","1000786","","","","","","","","52","85","85","10","17","1",""
"null","null","clear_screen","canvas-keyboard-response","454","767543","0.0-11.0-1.221","100","2022-3-9","13:45:23","0","21","[""Other""]","No","Female","1000786","","","","","","","","52","85","85","10","17","",""
"2724","7","rating","canvas-keyboard-response","455","770277","0.0-11.0-0.222","100","2022-3-9","13:45:23","0","21","[""Other""]","No","Female","1000786","","","","","","","","291","30","57","40","40","0",""
"null","null","clear_screen","canvas-keyboard-response","456","770535","0.0-11.0-1.222","100","2022-3-9","13:45:23","0","21","[""Other""]","No","Female","1000786","","","","","","","","291","30","57","40","40","",""
"5425","4","rating","canvas-keyboard-response","457","775973","0.0-11.0-0.223","100","2022-3-9","13:45:23","0","21","[""Other""]","No","Female","1000786","","","","","","","","33","57","30","10","25","1",""
"null","null","clear_screen","canvas-keyboard-response","458","776235","0.0-11.0-1.223","100","2022-3-9","13:45:23","0","21","[""Other""]","No","Female","1000786","","","","","","","","33","57","30","10","25","",""
"1278","3","rating","canvas-keyboard-response","459","777525","0.0-11.0-0.224","100","2022-3-9","13:45:23","0","21","[""Other""]","No","Female","1000786","","","","","","","","61","85","57","10","33","0",""
"null","null","clear_screen","canvas-keyboard-response","460","777783","0.0-11.0-1.224","100","2022-3-9","13:45:23","0","21","[""Other""]","No","Female","1000786","","","","","","","","61","85","57","10","33","",""
"1131","4","rating","canvas-keyboard-response","461","778925","0.0-11.0-0.225","100","2022-3-9","13:45:23","0","21","[""Other""]","No","Female","1000786","","","","","","","","154","85","140","17","25","1",""
"null","null","clear_screen","canvas-keyboard-response","462","779184","0.0-11.0-1.225","100","2022-3-9","13:45:23","0","21","[""Other""]","No","Female","1000786","","","","","","","","154","85","140","17","25","",""
"2002","4","rating","canvas-keyboard-response","463","781198","0.0-11.0-0.226","100","2022-3-9","13:45:23","0","21","[""Other""]","No","Female","1000786","","","","","","","","177","113","57","17","40","0",""
"null","null","clear_screen","canvas-keyboard-response","464","781459","0.0-11.0-1.226","100","2022-3-9","13:45:23","0","21","[""Other""]","No","Female","1000786","","","","","","","","177","113","57","17","40","",""
"3638","6","rating","canvas-keyboard-response","465","785110","0.0-11.0-0.227","100","2022-3-9","13:45:23","0","21","[""Other""]","No","Female","1000786","","","","","","","","27","57","140","10","10","1",""
