"rt","response","trialType","trial_type","trial_index","time_elapsed","internal_node_id","sub_n","date","time","leftRight","age","race","ethnicity","gender","exp_duration","success","timeout","failed_images","failed_audio","failed_video","stimulus","view_history","trialID","radius_a","radius_b","angle_a","angle_b","lrCond","question_order"
"6370","{""response"":""115""}","enter-sub-number","survey-html-form","0","6377","0.0-0.0","115","2022-3-31","14:50:11","0","22","[""White""]","No","Female","862982","","","","","","","","","","","","","",""
"","","","fullscreen","1","9328","0.0-1.0","115","2022-3-31","14:50:11","0","22","[""White""]","No","Female","862982","true","","","","","","","","","","","","",""
"","","","preload","2","9348","0.0-2.0","115","2022-3-31","14:50:11","0","22","[""White""]","No","Female","862982","true","false","[]","[]","[]","","","","","","","","",""
"17704","0","","html-button-response","3","27056","0.0-3.0","115","2022-3-31","14:50:11","0","22","[""White""]","No","Female","862982","","","","","","<div style= ""font-size:25px;"" <p> <strong> Welcome to the experiment! </strong><br> <p style=""color:#8B0000; font-size:25px;""><strong> Please do NOT exit full screen until you are done with the experiment. </strong> </p><p style=""font-size:25px;color:#8B0000;""> <strong> The experiment will be canceled and your data will be lost <br> if you try to go back or refresh the page at any point during the experiment.</strong> </p><br><p> <strong> Thanks in advance for your contribution to our research! </strong></p>","","","","","","","",""
"41939","","","instructions","4","69000","0.0-4.0","115","2022-3-31","14:50:11","0","22","[""White""]","No","Female","862982","","","","","","","[{""page_index"":0,""viewing_time"":9050},{""page_index"":1,""viewing_time"":9487},{""page_index"":2,""viewing_time"":23401}]","","","","","","",""
"null","null","presentPop","canvas-keyboard-response","5","85018","0.0-5.0","115","2022-3-31","14:50:11","0","22","[""White""]","No","Female","862982","","","","","","","","","","","","","",""
"null","null","clear_screen","canvas-keyboard-response","6","85784","0.0-6.0","115","2022-3-31","14:50:11","0","22","[""White""]","No","Female","862982","","","","","","","","","","","","","",""
"2564","","","instructions","7","88351","0.0-7.0","115","2022-3-31","14:50:11","0","22","[""White""]","No","Female","862982","","","","","","","[{""page_index"":0,""viewing_time"":2563}]","","","","","","",""
"null","null","presentPop","canvas-keyboard-response","8","104365","0.0-8.0","115","2022-3-31","14:50:11","0","22","[""White""]","No","Female","862982","","","","","","","","","","","","","",""
"null","null","clear_screen","canvas-keyboard-response","9","105128","0.0-9.0","115","2022-3-31","14:50:11","0","22","[""White""]","No","Female","862982","","","","","","","","","","","","","",""
"8966","","","instructions","10","114096","0.0-10.0","115","2022-3-31","14:50:11","0","22","[""White""]","No","Female","862982","","","","","","","[{""page_index"":0,""viewing_time"":4717},{""page_index"":1,""viewing_time"":4248}]","","","","","","",""
"10040","7","rating","canvas-keyboard-response","11","125151","0.0-11.0-0.0","115","2022-3-31","14:50:11","0","22","[""White""]","No","Female","862982","","","","","","","","139","57","57","17","33","0",""
"null","null","clear_screen","canvas-keyboard-response","12","125415","0.0-11.0-1.0","115","2022-3-31","14:50:11","0","22","[""White""]","No","Female","862982","","","","","","","","139","57","57","17","33","",""
"4377","3","rating","canvas-keyboard-response","13","129807","0.0-11.0-0.1","115","2022-3-31","14:50:11","0","22","[""White""]","No","Female","862982","","","","","","","","172","113","57","17","33","0",""
"null","null","clear_screen","canvas-keyboard-response","14","130068","0.0-11.0-1.1","115","2022-3-31","14:50:11","0","22","[""White""]","No","Female","862982","","","","","","","","172","113","57","17","33","",""
"5197","1","rating","canvas-keyboard-response","15","135279","0.0-11.0-0.2","115","2022-3-31","14:50:11","0","22","[""White""]","No","Female","862982","","","","","","","","176","113","30","17","40","0",""
"null","null","clear_screen","canvas-keyboard-response","16","135540","0.0-11.0-1.2","115","2022-3-31","14:50:11","0","22","[""White""]","No","Female","862982","","","","","","","","176","113","30","17","40","",""
"2701","3","rating","canvas-keyboard-response","17","138255","0.0-11.0-0.3","115","2022-3-31","14:50:11","0","22","[""White""]","No","Female","862982","","","","","","","","147","57","140","17","40","0",""
"null","null","clear_screen","canvas-keyboard-response","18","138516","0.0-11.0-1.3","115","2022-3-31","14:50:11","0","22","[""White""]","No","Female","862982","","","","","","","","147","57","140","17","40","",""
"6412","4","rating","canvas-keyboard-response","19","144943","0.0-11.0-0.4","115","2022-3-31","14:50:11","0","22","[""White""]","No","Female","862982","","","","","","","","202","30","85","25","33","0",""
"null","null","clear_screen","canvas-keyboard-response","20","145202","0.0-11.0-1.4","115","2022-3-31","14:50:11","0","22","[""White""]","No","Female","862982","","","","","","","","202","30","85","25","33","",""
"3371","2","rating","canvas-keyboard-response","21","148583","0.0-11.0-0.5","115","2022-3-31","14:50:11","0","22","[""White""]","No","Female","862982","","","","","","","","7","30","85","10","17","1",""
"null","null","clear_screen","canvas-keyboard-response","22","148844","0.0-11.0-1.5","115","2022-3-31","14:50:11","0","22","[""White""]","No","Female","862982","","","","","","","","7","30","85","10","17","",""
"3079","4","rating","canvas-keyboard-response","23","151935","0.0-11.0-0.6","115","2022-3-31","14:50:11","0","22","[""White""]","No","Female","862982","","","","","","","","56","85","57","10","25","0",""
"null","null","clear_screen","canvas-keyboard-response","24","152193","0.0-11.0-1.6","115","2022-3-31","14:50:11","0","22","[""White""]","No","Female","862982","","","","","","","","56","85","57","10","25","",""
"7467","8","rating","canvas-keyboard-response","25","159672","0.0-11.0-0.7","115","2022-3-31","14:50:11","0","22","[""White""]","No","Female","862982","","","","","","","","53","85","113","10","17","1",""
"null","null","clear_screen","canvas-keyboard-response","26","159932","0.0-11.0-1.7","115","2022-3-31","14:50:11","0","22","[""White""]","No","Female","862982","","","","","","","","53","85","113","10","17","",""
"2134","8","rating","canvas-keyboard-response","27","162079","0.0-11.0-0.8","115","2022-3-31","14:50:11","0","22","[""White""]","No","Female","862982","","","","","","","","169","113","113","17","25","0",""
"null","null","clear_screen","canvas-keyboard-response","28","162342","0.0-11.0-1.8","115","2022-3-31","14:50:11","0","22","[""White""]","No","Female","862982","","","","","","","","169","113","113","17","25","",""
"1798","4","rating","canvas-keyboard-response","29","164151","0.0-11.0-0.9","115","2022-3-31","14:50:11","0","22","[""White""]","No","Female","862982","","","","","","","","66","85","57","10","40","0",""
"null","null","clear_screen","canvas-keyboard-response","30","164413","0.0-11.0-1.9","115","2022-3-31","14:50:11","0","22","[""White""]","No","Female","862982","","","","","","","","66","85","57","10","40","",""
"5405","3","rating","canvas-keyboard-response","31","169831","0.0-11.0-0.10","115","2022-3-31","14:50:11","0","22","[""White""]","No","Female","862982","","","","","","","","77","113","57","10","25","0",""
"null","null","clear_screen","canvas-keyboard-response","32","170093","0.0-11.0-1.10","115","2022-3-31","14:50:11","0","22","[""White""]","No","Female","862982","","","","","","","","77","113","57","10","25","",""
"4084","2","rating","canvas-keyboard-response","33","174191","0.0-11.0-0.11","115","2022-3-31","14:50:11","0","22","[""White""]","No","Female","862982","","","","","","","","193","140","85","17","40","1",""
"null","null","clear_screen","canvas-keyboard-response","34","174449","0.0-11.0-1.11","115","2022-3-31","14:50:11","0","22","[""White""]","No","Female","862982","","","","","","","","193","140","85","17","40","",""
"2169","3","rating","canvas-keyboard-response","35","176631","0.0-11.0-0.12","115","2022-3-31","14:50:11","0","22","[""White""]","No","Female","862982","","","","","","","","261","30","57","33","40","0",""
"null","null","clear_screen","canvas-keyboard-response","36","176894","0.0-11.0-1.12","115","2022-3-31","14:50:11","0","22","[""White""]","No","Female","862982","","","","","","","","261","30","57","33","40","",""
"3052","5","rating","canvas-keyboard-response","37","179959","0.0-11.0-0.13","115","2022-3-31","14:50:11","0","22","[""White""]","No","Female","862982","","","","","","","","297","57","140","40","40","0",""
"null","null","clear_screen","canvas-keyboard-response","38","180219","0.0-11.0-1.13","115","2022-3-31","14:50:11","0","22","[""White""]","No","Female","862982","","","","","","","","297","57","140","40","40","",""
"2200","8","rating","canvas-keyboard-response","39","182431","0.0-11.0-0.14","115","2022-3-31","14:50:11","0","22","[""White""]","No","Female","862982","","","","","","","","165","113","140","17","17","1",""
"null","null","clear_screen","canvas-keyboard-response","40","182689","0.0-11.0-1.14","115","2022-3-31","14:50:11","0","22","[""White""]","No","Female","862982","","","","","","","","165","113","140","17","17","",""
"2553","8","rating","canvas-keyboard-response","41","185255","0.0-11.0-0.15","115","2022-3-31","14:50:11","0","22","[""White""]","No","Female","862982","","","","","","","","170","113","140","17","25","1",""
"null","null","clear_screen","canvas-keyboard-response","42","185514","0.0-11.0-1.15","115","2022-3-31","14:50:11","0","22","[""White""]","No","Female","862982","","","","","","","","170","113","140","17","25","",""
"3408","9","rating","canvas-keyboard-response","43","188934","0.0-11.0-0.16","115","2022-3-31","14:50:11","0","22","[""White""]","No","Female","862982","","","","","","","","5","30","30","10","17","1",""
"null","null","clear_screen","canvas-keyboard-response","44","189196","0.0-11.0-1.16","115","2022-3-31","14:50:11","0","22","[""White""]","No","Female","862982","","","","","","","","5","30","30","10","17","",""
"1342","8","rating","canvas-keyboard-response","45","190551","0.0-11.0-0.17","115","2022-3-31","14:50:11","0","22","[""White""]","No","Female","862982","","","","","","","","79","113","113","10","25","1",""
"null","null","clear_screen","canvas-keyboard-response","46","190812","0.0-11.0-1.17","115","2022-3-31","14:50:11","0","22","[""White""]","No","Female","862982","","","","","","","","79","113","113","10","25","",""
"1108","7","rating","canvas-keyboard-response","47","191935","0.0-11.0-0.18","115","2022-3-31","14:50:11","0","22","[""White""]","No","Female","862982","","","","","","","","98","140","85","10","25","0",""
"null","null","clear_screen","canvas-keyboard-response","48","192195","0.0-11.0-1.18","115","2022-3-31","14:50:11","0","22","[""White""]","No","Female","862982","","","","","","","","98","140","85","10","25","",""
"2257","4","rating","canvas-keyboard-response","49","194462","0.0-11.0-0.19","115","2022-3-31","14:50:11","0","22","[""White""]","No","Female","862982","","","","","","","","208","30","113","25","40","1",""
"null","null","clear_screen","canvas-keyboard-response","50","194722","0.0-11.0-1.19","115","2022-3-31","14:50:11","0","22","[""White""]","No","Female","862982","","","","","","","","208","30","113","25","40","",""
"2056","4","rating","canvas-keyboard-response","51","196790","0.0-11.0-0.20","115","2022-3-31","14:50:11","0","22","[""White""]","No","Female","862982","","","","","","","","151","85","57","17","25","1",""
"null","null","clear_screen","canvas-keyboard-response","52","197049","0.0-11.0-1.20","115","2022-3-31","14:50:11","0","22","[""White""]","No","Female","862982","","","","","","","","151","85","57","17","25","",""
"1913","1","rating","canvas-keyboard-response","53","198975","0.0-11.0-0.21","115","2022-3-31","14:50:11","0","22","[""White""]","No","Female","862982","","","","","","","","76","113","30","10","25","1",""
"null","null","clear_screen","canvas-keyboard-response","54","199236","0.0-11.0-1.21","115","2022-3-31","14:50:11","0","22","[""White""]","No","Female","862982","","","","","","","","76","113","30","10","25","",""
"2213","4","rating","canvas-keyboard-response","55","201463","0.0-11.0-0.22","115","2022-3-31","14:50:11","0","22","[""White""]","No","Female","862982","","","","","","","","136","57","113","17","25","0",""
"null","null","clear_screen","canvas-keyboard-response","56","201724","0.0-11.0-1.22","115","2022-3-31","14:50:11","0","22","[""White""]","No","Female","862982","","","","","","","","136","57","113","17","25","",""
"1499","3","rating","canvas-keyboard-response","57","203238","0.0-11.0-0.23","115","2022-3-31","14:50:11","0","22","[""White""]","No","Female","862982","","","","","","","","57","85","85","10","25","1",""
"null","null","clear_screen","canvas-keyboard-response","58","203498","0.0-11.0-1.23","115","2022-3-31","14:50:11","0","22","[""White""]","No","Female","862982","","","","","","","","57","85","85","10","25","",""
"2752","3","rating","canvas-keyboard-response","59","206262","0.0-11.0-0.24","115","2022-3-31","14:50:11","0","22","[""White""]","No","Female","862982","","","","","","","","28","57","30","10","17","0",""
"null","null","clear_screen","canvas-keyboard-response","60","206523","0.0-11.0-1.24","115","2022-3-31","14:50:11","0","22","[""White""]","No","Female","862982","","","","","","","","28","57","30","10","17","",""
"5942","1","rating","canvas-keyboard-response","61","212478","0.0-11.0-0.25","115","2022-3-31","14:50:11","0","22","[""White""]","No","Female","862982","","","","","","","","212","57","140","25","25","0",""
"null","null","clear_screen","canvas-keyboard-response","62","212742","0.0-11.0-1.25","115","2022-3-31","14:50:11","0","22","[""White""]","No","Female","862982","","","","","","","","212","57","140","25","25","",""
"1652","1","rating","canvas-keyboard-response","63","214407","0.0-11.0-0.26","115","2022-3-31","14:50:11","0","22","[""White""]","No","Female","862982","","","","","","","","50","85","30","10","17","0",""
"null","null","clear_screen","canvas-keyboard-response","64","214665","0.0-11.0-1.26","115","2022-3-31","14:50:11","0","22","[""White""]","No","Female","862982","","","","","","","","50","85","30","10","17","",""
"4856","3","rating","canvas-keyboard-response","65","219535","0.0-11.0-0.27","115","2022-3-31","14:50:11","0","22","[""White""]","No","Female","862982","","","","","","","","125","30","30","17","40","1",""
"null","null","clear_screen","canvas-keyboard-response","66","219795","0.0-11.0-1.27","115","2022-3-31","14:50:11","0","22","[""White""]","No","Female","862982","","","","","","","","125","30","30","17","40","",""
"1477","1","rating","canvas-keyboard-response","67","221287","0.0-11.0-0.28","115","2022-3-31","14:50:11","0","22","[""White""]","No","Female","862982","","","","","","","","103","140","85","10","33","1",""
"null","null","clear_screen","canvas-keyboard-response","68","221547","0.0-11.0-1.28","115","2022-3-31","14:50:11","0","22","[""White""]","No","Female","862982","","","","","","","","103","140","85","10","33","",""
"1195","1","rating","canvas-keyboard-response","69","222750","0.0-11.0-0.29","115","2022-3-31","14:50:11","0","22","[""White""]","No","Female","862982","","","","","","","","107","140","57","10","40","0",""
"null","null","clear_screen","canvas-keyboard-response","70","223014","0.0-11.0-1.29","115","2022-3-31","14:50:11","0","22","[""White""]","No","Female","862982","","","","","","","","107","140","57","10","40","",""
"2855","2","rating","canvas-keyboard-response","71","225879","0.0-11.0-0.30","115","2022-3-31","14:50:11","0","22","[""White""]","No","Female","862982","","","","","","","","286","140","30","33","40","0",""
"null","null","clear_screen","canvas-keyboard-response","72","226138","0.0-11.0-1.30","115","2022-3-31","14:50:11","0","22","[""White""]","No","Female","862982","","","","","","","","286","140","30","33","40","",""
"2455","6","rating","canvas-keyboard-response","73","228606","0.0-11.0-0.31","115","2022-3-31","14:50:11","0","22","[""White""]","No","Female","862982","","","","","","","","15","30","30","10","33","0",""
"null","null","clear_screen","canvas-keyboard-response","74","228867","0.0-11.0-1.31","115","2022-3-31","14:50:11","0","22","[""White""]","No","Female","862982","","","","","","","","15","30","30","10","33","",""
"2000","5","rating","canvas-keyboard-response","75","230879","0.0-11.0-0.32","115","2022-3-31","14:50:11","0","22","[""White""]","No","Female","862982","","","","","","","","245","113","140","25","40","0",""
"null","null","clear_screen","canvas-keyboard-response","76","231140","0.0-11.0-1.32","115","2022-3-31","14:50:11","0","22","[""White""]","No","Female","862982","","","","","","","","245","113","140","25","40","",""
"1969","8","rating","canvas-keyboard-response","77","233118","0.0-11.0-0.33","115","2022-3-31","14:50:11","0","22","[""White""]","No","Female","862982","","","","","","","","289","140","113","33","40","0",""
"null","null","clear_screen","canvas-keyboard-response","78","233377","0.0-11.0-1.33","115","2022-3-31","14:50:11","0","22","[""White""]","No","Female","862982","","","","","","","","289","140","113","33","40","",""
"2094","4","rating","canvas-keyboard-response","79","235487","0.0-11.0-0.34","115","2022-3-31","14:50:11","0","22","[""White""]","No","Female","862982","","","","","","","","21","30","57","10","40","1",""
"null","null","clear_screen","canvas-keyboard-response","80","235748","0.0-11.0-1.34","115","2022-3-31","14:50:11","0","22","[""White""]","No","Female","862982","","","","","","","","21","30","57","10","40","",""
"1583","6","rating","canvas-keyboard-response","81","237343","0.0-11.0-0.35","115","2022-3-31","14:50:11","0","22","[""White""]","No","Female","862982","","","","","","","","278","85","113","33","40","1",""
"null","null","clear_screen","canvas-keyboard-response","82","237602","0.0-11.0-1.35","115","2022-3-31","14:50:11","0","22","[""White""]","No","Female","862982","","","","","","","","278","85","113","33","40","",""
"2248","4","rating","canvas-keyboard-response","83","239862","0.0-11.0-0.36","115","2022-3-31","14:50:11","0","22","[""White""]","No","Female","862982","","","","","","","","142","57","140","17","33","0",""
"null","null","clear_screen","canvas-keyboard-response","84","240121","0.0-11.0-1.36","115","2022-3-31","14:50:11","0","22","[""White""]","No","Female","862982","","","","","","","","142","57","140","17","33","",""
"1234","6","rating","canvas-keyboard-response","85","241367","0.0-11.0-0.37","115","2022-3-31","14:50:11","0","22","[""White""]","No","Female","862982","","","","","","","","175","113","140","17","33","0",""
"null","null","clear_screen","canvas-keyboard-response","86","241628","0.0-11.0-1.37","115","2022-3-31","14:50:11","0","22","[""White""]","No","Female","862982","","","","","","","","175","113","140","17","33","",""
"2728","4","rating","canvas-keyboard-response","87","244366","0.0-11.0-0.38","115","2022-3-31","14:50:11","0","22","[""White""]","No","Female","862982","","","","","","","","132","57","140","17","17","1",""
"null","null","clear_screen","canvas-keyboard-response","88","244627","0.0-11.0-1.38","115","2022-3-31","14:50:11","0","22","[""White""]","No","Female","862982","","","","","","","","132","57","140","17","17","",""
"2301","4","rating","canvas-keyboard-response","89","246942","0.0-11.0-0.39","115","2022-3-31","14:50:11","0","22","[""White""]","No","Female","862982","","","","","","","","237","113","57","25","33","1",""
"null","null","clear_screen","canvas-keyboard-response","90","247202","0.0-11.0-1.39","115","2022-3-31","14:50:11","0","22","[""White""]","No","Female","862982","","","","","","","","237","113","57","25","33","",""
"2079","3","rating","canvas-keyboard-response","91","249295","0.0-11.0-0.40","115","2022-3-31","14:50:11","0","22","[""White""]","No","Female","862982","","","","","","","","266","57","113","33","33","1",""
"null","null","clear_screen","canvas-keyboard-response","92","249554","0.0-11.0-1.40","115","2022-3-31","14:50:11","0","22","[""White""]","No","Female","862982","","","","","","","","266","57","113","33","33","",""
"3462","4","rating","canvas-keyboard-response","93","253031","0.0-11.0-0.41","115","2022-3-31","14:50:11","0","22","[""White""]","No","Female","862982","","","","","","","","207","30","85","25","40","0",""
"null","null","clear_screen","canvas-keyboard-response","94","253290","0.0-11.0-1.41","115","2022-3-31","14:50:11","0","22","[""White""]","No","Female","862982","","","","","","","","207","30","85","25","40","",""
"2717","4","rating","canvas-keyboard-response","95","256023","0.0-11.0-0.42","115","2022-3-31","14:50:11","0","22","[""White""]","No","Female","862982","","","","","","","","72","113","57","10","17","0",""
"null","null","clear_screen","canvas-keyboard-response","96","256287","0.0-11.0-1.42","115","2022-3-31","14:50:11","0","22","[""White""]","No","Female","862982","","","","","","","","72","113","57","10","17","",""
"1729","3","rating","canvas-keyboard-response","97","258031","0.0-11.0-0.43","115","2022-3-31","14:50:11","0","22","[""White""]","No","Female","862982","","","","","","","","173","113","85","17","33","1",""
"null","null","clear_screen","canvas-keyboard-response","98","258294","0.0-11.0-1.43","115","2022-3-31","14:50:11","0","22","[""White""]","No","Female","862982","","","","","","","","173","113","85","17","33","",""
"2539","3","rating","canvas-keyboard-response","99","260848","0.0-11.0-0.44","115","2022-3-31","14:50:11","0","22","[""White""]","No","Female","862982","","","","","","","","234","85","140","25","40","0",""
"null","null","clear_screen","canvas-keyboard-response","100","261108","0.0-11.0-1.44","115","2022-3-31","14:50:11","0","22","[""White""]","No","Female","862982","","","","","","","","234","85","140","25","40","",""
"3414","2","rating","canvas-keyboard-response","101","264535","0.0-11.0-0.45","115","2022-3-31","14:50:11","0","22","[""White""]","No","Female","862982","","","","","","","","33","57","30","10","25","0",""
"null","null","clear_screen","canvas-keyboard-response","102","264794","0.0-11.0-1.45","115","2022-3-31","14:50:11","0","22","[""White""]","No","Female","862982","","","","","","","","33","57","30","10","25","",""
"2011","2","rating","canvas-keyboard-response","103","266815","0.0-11.0-0.46","115","2022-3-31","14:50:11","0","22","[""White""]","No","Female","862982","","","","","","","","6","30","57","10","17","0",""
"null","null","clear_screen","canvas-keyboard-response","104","267074","0.0-11.0-1.46","115","2022-3-31","14:50:11","0","22","[""White""]","No","Female","862982","","","","","","","","6","30","57","10","17","",""
"2149","2","rating","canvas-keyboard-response","105","269239","0.0-11.0-0.47","115","2022-3-31","14:50:11","0","22","[""White""]","No","Female","862982","","","","","","","","38","57","30","10","33","0",""
"null","null","clear_screen","canvas-keyboard-response","106","269500","0.0-11.0-1.47","115","2022-3-31","14:50:11","0","22","[""White""]","No","Female","862982","","","","","","","","38","57","30","10","33","",""
"1826","1","rating","canvas-keyboard-response","107","271342","0.0-11.0-0.48","115","2022-3-31","14:50:11","0","22","[""White""]","No","Female","862982","","","","","","","","293","30","113","40","40","1",""
"null","null","clear_screen","canvas-keyboard-response","108","271604","0.0-11.0-1.48","115","2022-3-31","14:50:11","0","22","[""White""]","No","Female","862982","","","","","","","","293","30","113","40","40","",""
"1247","1","rating","canvas-keyboard-response","109","272862","0.0-11.0-0.49","115","2022-3-31","14:50:11","0","22","[""White""]","No","Female","862982","","","","","","","","18","30","113","10","33","0",""
"null","null","clear_screen","canvas-keyboard-response","110","273124","0.0-11.0-1.49","115","2022-3-31","14:50:11","0","22","[""White""]","No","Female","862982","","","","","","","","18","30","113","10","33","",""
"1152","1","rating","canvas-keyboard-response","111","274287","0.0-11.0-0.50","115","2022-3-31","14:50:11","0","22","[""White""]","No","Female","862982","","","","","","","","13","30","113","10","25","1",""
"null","null","clear_screen","canvas-keyboard-response","112","274547","0.0-11.0-1.50","115","2022-3-31","14:50:11","0","22","[""White""]","No","Female","862982","","","","","","","","13","30","113","10","25","",""
"1617","1","rating","canvas-keyboard-response","113","276174","0.0-11.0-0.51","115","2022-3-31","14:50:11","0","22","[""White""]","No","Female","862982","","","","","","","","55","85","30","10","25","1",""
"null","null","clear_screen","canvas-keyboard-response","114","276435","0.0-11.0-1.51","115","2022-3-31","14:50:11","0","22","[""White""]","No","Female","862982","","","","","","","","55","85","30","10","25","",""
"1981","4","rating","canvas-keyboard-response","115","278431","0.0-11.0-0.52","115","2022-3-31","14:50:11","0","22","[""White""]","No","Female","862982","","","","","","","","1","30","57","10","10","1",""
"null","null","clear_screen","canvas-keyboard-response","116","278690","0.0-11.0-1.52","115","2022-3-31","14:50:11","0","22","[""White""]","No","Female","862982","","","","","","","","1","30","57","10","10","",""
"2349","5","rating","canvas-keyboard-response","117","281054","0.0-11.0-0.53","115","2022-3-31","14:50:11","0","22","[""White""]","No","Female","862982","","","","","","","","238","113","85","25","33","1",""
"null","null","clear_screen","canvas-keyboard-response","118","281319","0.0-11.0-1.53","115","2022-3-31","14:50:11","0","22","[""White""]","No","Female","862982","","","","","","","","238","113","85","25","33","",""
"1684","3","rating","canvas-keyboard-response","119","283015","0.0-11.0-0.54","115","2022-3-31","14:50:11","0","22","[""White""]","No","Female","862982","","","","","","","","160","85","30","17","40","0",""
"null","null","clear_screen","canvas-keyboard-response","120","283275","0.0-11.0-1.54","115","2022-3-31","14:50:11","0","22","[""White""]","No","Female","862982","","","","","","","","160","85","30","17","40","",""
"2629","5","rating","canvas-keyboard-response","121","285918","0.0-11.0-0.55","115","2022-3-31","14:50:11","0","22","[""White""]","No","Female","862982","","","","","","","","63","85","113","10","33","1",""
"null","null","clear_screen","canvas-keyboard-response","122","286178","0.0-11.0-1.55","115","2022-3-31","14:50:11","0","22","[""White""]","No","Female","862982","","","","","","","","63","85","113","10","33","",""
"1692","5","rating","canvas-keyboard-response","123","287879","0.0-11.0-0.56","115","2022-3-31","14:50:11","0","22","[""White""]","No","Female","862982","","","","","","","","137","57","140","17","25","0",""
"null","null","clear_screen","canvas-keyboard-response","124","288138","0.0-11.0-1.56","115","2022-3-31","14:50:11","0","22","[""White""]","No","Female","862982","","","","","","","","137","57","140","17","25","",""
"1256","5","rating","canvas-keyboard-response","125","289407","0.0-11.0-0.57","115","2022-3-31","14:50:11","0","22","[""White""]","No","Female","862982","","","","","","","","273","85","113","33","33","0",""
"null","null","clear_screen","canvas-keyboard-response","126","289668","0.0-11.0-1.57","115","2022-3-31","14:50:11","0","22","[""White""]","No","Female","862982","","","","","","","","273","85","113","33","33","",""
"1736","2","rating","canvas-keyboard-response","127","291415","0.0-11.0-0.58","115","2022-3-31","14:50:11","0","22","[""White""]","No","Female","862982","","","","","","","","106","140","30","10","40","1",""
"null","null","clear_screen","canvas-keyboard-response","128","291674","0.0-11.0-1.58","115","2022-3-31","14:50:11","0","22","[""White""]","No","Female","862982","","","","","","","","106","140","30","10","40","",""
"2131","3","rating","canvas-keyboard-response","129","293815","0.0-11.0-0.59","115","2022-3-31","14:50:11","0","22","[""White""]","No","Female","862982","","","","","","","","287","140","57","33","40","1",""
"null","null","clear_screen","canvas-keyboard-response","130","294076","0.0-11.0-1.59","115","2022-3-31","14:50:11","0","22","[""White""]","No","Female","862982","","","","","","","","287","140","57","33","40","",""
"2533","2","rating","canvas-keyboard-response","131","296622","0.0-11.0-0.60","115","2022-3-31","14:50:11","0","22","[""White""]","No","Female","862982","","","","","","","","230","85","30","25","40","0",""
"null","null","clear_screen","canvas-keyboard-response","132","296885","0.0-11.0-1.60","115","2022-3-31","14:50:11","0","22","[""White""]","No","Female","862982","","","","","","","","230","85","30","25","40","",""
"2278","1","rating","canvas-keyboard-response","133","299174","0.0-11.0-0.61","115","2022-3-31","14:50:11","0","22","[""White""]","No","Female","862982","","","","","","","","123","30","113","17","33","0",""
"null","null","clear_screen","canvas-keyboard-response","134","299434","0.0-11.0-1.61","115","2022-3-31","14:50:11","0","22","[""White""]","No","Female","862982","","","","","","","","123","30","113","17","33","",""
"1674","2","rating","canvas-keyboard-response","135","301118","0.0-11.0-0.62","115","2022-3-31","14:50:11","0","22","[""White""]","No","Female","862982","","","","","","","","178","113","85","17","40","0",""
"null","null","clear_screen","canvas-keyboard-response","136","301378","0.0-11.0-1.62","115","2022-3-31","14:50:11","0","22","[""White""]","No","Female","862982","","","","","","","","178","113","85","17","40","",""
"3578","3","rating","canvas-keyboard-response","137","304966","0.0-11.0-0.63","115","2022-3-31","14:50:11","0","22","[""White""]","No","Female","862982","","","","","","","","164","85","140","17","40","1",""
"null","null","clear_screen","canvas-keyboard-response","138","305225","0.0-11.0-1.63","115","2022-3-31","14:50:11","0","22","[""White""]","No","Female","862982","","","","","","","","164","85","140","17","40","",""
"3722","6","rating","canvas-keyboard-response","139","308959","0.0-11.0-0.64","115","2022-3-31","14:50:11","0","22","[""White""]","No","Female","862982","","","","","","","","131","57","113","17","17","0",""
"null","null","clear_screen","canvas-keyboard-response","140","309219","0.0-11.0-1.64","115","2022-3-31","14:50:11","0","22","[""White""]","No","Female","862982","","","","","","","","131","57","113","17","17","",""
"1842","1","rating","canvas-keyboard-response","141","311071","0.0-11.0-0.65","115","2022-3-31","14:50:11","0","22","[""White""]","No","Female","862982","","","","","","","","264","30","140","33","40","0",""
"null","null","clear_screen","canvas-keyboard-response","142","311333","0.0-11.0-1.65","115","2022-3-31","14:50:11","0","22","[""White""]","No","Female","862982","","","","","","","","264","30","140","33","40","",""
"2801","3","rating","canvas-keyboard-response","143","314142","0.0-11.0-0.66","115","2022-3-31","14:50:11","0","22","[""White""]","No","Female","862982","","","","","","","","45","57","85","10","40","0",""
"null","null","clear_screen","canvas-keyboard-response","144","314402","0.0-11.0-1.66","115","2022-3-31","14:50:11","0","22","[""White""]","No","Female","862982","","","","","","","","45","57","85","10","40","",""
"1394","3","rating","canvas-keyboard-response","145","315807","0.0-11.0-0.67","115","2022-3-31","14:50:11","0","22","[""White""]","No","Female","862982","","","","","","","","126","30","57","17","40","0",""
"null","null","clear_screen","canvas-keyboard-response","146","316070","0.0-11.0-1.67","115","2022-3-31","14:50:11","0","22","[""White""]","No","Female","862982","","","","","","","","126","30","57","17","40","",""
"2866","2","rating","canvas-keyboard-response","147","318950","0.0-11.0-0.68","115","2022-3-31","14:50:11","0","22","[""White""]","No","Female","862982","","","","","","","","92","140","57","10","17","1",""
"null","null","clear_screen","canvas-keyboard-response","148","319210","0.0-11.0-1.68","115","2022-3-31","14:50:11","0","22","[""White""]","No","Female","862982","","","","","","","","92","140","57","10","17","",""
"3286","1","rating","canvas-keyboard-response","149","322510","0.0-11.0-0.69","115","2022-3-31","14:50:11","0","22","[""White""]","No","Female","862982","","","","","","","","85","113","140","10","33","1",""
"null","null","clear_screen","canvas-keyboard-response","150","322769","0.0-11.0-1.69","115","2022-3-31","14:50:11","0","22","[""White""]","No","Female","862982","","","","","","","","85","113","140","10","33","",""
"4160","5","rating","canvas-keyboard-response","151","326943","0.0-11.0-0.70","115","2022-3-31","14:50:11","0","22","[""White""]","No","Female","862982","","","","","","","","219","57","57","25","40","0",""
"null","null","clear_screen","canvas-keyboard-response","152","327206","0.0-11.0-1.70","115","2022-3-31","14:50:11","0","22","[""White""]","No","Female","862982","","","","","","","","219","57","57","25","40","",""
"1142","4","rating","canvas-keyboard-response","153","328359","0.0-11.0-0.71","115","2022-3-31","14:50:11","0","22","[""White""]","No","Female","862982","","","","","","","","220","57","85","25","40","1",""
"null","null","clear_screen","canvas-keyboard-response","154","328621","0.0-11.0-1.71","115","2022-3-31","14:50:11","0","22","[""White""]","No","Female","862982","","","","","","","","220","57","85","25","40","",""
"2679","5","rating","canvas-keyboard-response","155","331311","0.0-11.0-0.72","115","2022-3-31","14:50:11","0","22","[""White""]","No","Female","862982","","","","","","","","80","113","140","10","25","1",""
"null","null","clear_screen","canvas-keyboard-response","156","331572","0.0-11.0-1.72","115","2022-3-31","14:50:11","0","22","[""White""]","No","Female","862982","","","","","","","","80","113","140","10","25","",""
"1469","1","rating","canvas-keyboard-response","157","333055","0.0-11.0-0.73","115","2022-3-31","14:50:11","0","22","[""White""]","No","Female","862982","","","","","","","","186","140","30","17","33","0",""
"null","null","clear_screen","canvas-keyboard-response","158","333317","0.0-11.0-1.73","115","2022-3-31","14:50:11","0","22","[""White""]","No","Female","862982","","","","","","","","186","140","30","17","33","",""
"1487","5","rating","canvas-keyboard-response","159","334814","0.0-11.0-0.74","115","2022-3-31","14:50:11","0","22","[""White""]","No","Female","862982","","","","","","","","227","85","85","25","33","1",""
"null","null","clear_screen","canvas-keyboard-response","160","335076","0.0-11.0-1.74","115","2022-3-31","14:50:11","0","22","[""White""]","No","Female","862982","","","","","","","","227","85","85","25","33","",""
"2558","9","rating","canvas-keyboard-response","161","337646","0.0-11.0-0.75","115","2022-3-31","14:50:11","0","22","[""White""]","No","Female","862982","","","","","","","","284","113","113","33","40","0",""
"null","null","clear_screen","canvas-keyboard-response","162","337906","0.0-11.0-1.75","115","2022-3-31","14:50:11","0","22","[""White""]","No","Female","862982","","","","","","","","284","113","113","33","40","",""
"2832","5","rating","canvas-keyboard-response","163","340750","0.0-11.0-0.76","115","2022-3-31","14:50:11","0","22","[""White""]","No","Female","862982","","","","","","","","291","30","57","40","40","1",""
"null","null","clear_screen","canvas-keyboard-response","164","341012","0.0-11.0-1.76","115","2022-3-31","14:50:11","0","22","[""White""]","No","Female","862982","","","","","","","","291","30","57","40","40","",""
"2663","5","rating","canvas-keyboard-response","165","343688","0.0-11.0-0.77","115","2022-3-31","14:50:11","0","22","[""White""]","No","Female","862982","","","","","","","","104","140","113","10","33","0",""
"null","null","clear_screen","canvas-keyboard-response","166","343950","0.0-11.0-1.77","115","2022-3-31","14:50:11","0","22","[""White""]","No","Female","862982","","","","","","","","104","140","113","10","33","",""
"4773","8","rating","canvas-keyboard-response","167","348735","0.0-11.0-0.78","115","2022-3-31","14:50:11","0","22","[""White""]","No","Female","862982","","","","","","","","280","113","140","33","33","1",""
"null","null","clear_screen","canvas-keyboard-response","168","348996","0.0-11.0-1.78","115","2022-3-31","14:50:11","0","22","[""White""]","No","Female","862982","","","","","","","","280","113","140","33","33","",""
"2759","8","rating","canvas-keyboard-response","169","351767","0.0-11.0-0.79","115","2022-3-31","14:50:11","0","22","[""White""]","No","Female","862982","","","","","","","","265","57","85","33","33","0",""
"null","null","clear_screen","canvas-keyboard-response","170","352027","0.0-11.0-1.79","115","2022-3-31","14:50:11","0","22","[""White""]","No","Female","862982","","","","","","","","265","57","85","33","33","",""
"1753","8","rating","canvas-keyboard-response","171","353791","0.0-11.0-0.80","115","2022-3-31","14:50:11","0","22","[""White""]","No","Female","862982","","","","","","","","29","57","57","10","17","0",""
"null","null","clear_screen","canvas-keyboard-response","172","354051","0.0-11.0-1.80","115","2022-3-31","14:50:11","0","22","[""White""]","No","Female","862982","","","","","","","","29","57","57","10","17","",""
"2205","6","rating","canvas-keyboard-response","173","356270","0.0-11.0-0.81","115","2022-3-31","14:50:11","0","22","[""White""]","No","Female","862982","","","","","","","","82","113","57","10","33","0",""
"null","null","clear_screen","canvas-keyboard-response","174","356535","0.0-11.0-1.81","115","2022-3-31","14:50:11","0","22","[""White""]","No","Female","862982","","","","","","","","82","113","57","10","33","",""
"1470","7","rating","canvas-keyboard-response","175","358014","0.0-11.0-0.82","115","2022-3-31","14:50:11","0","22","[""White""]","No","Female","862982","","","","","","","","177","113","57","17","40","0",""
"null","null","clear_screen","canvas-keyboard-response","176","358274","0.0-11.0-1.82","115","2022-3-31","14:50:11","0","22","[""White""]","No","Female","862982","","","","","","","","177","113","57","17","40","",""
"1305","7","rating","canvas-keyboard-response","177","359591","0.0-11.0-0.83","115","2022-3-31","14:50:11","0","22","[""White""]","No","Female","862982","","","","","","","","161","85","57","17","40","0",""
"null","null","clear_screen","canvas-keyboard-response","178","359854","0.0-11.0-1.83","115","2022-3-31","14:50:11","0","22","[""White""]","No","Female","862982","","","","","","","","161","85","57","17","40","",""
"2892","2","rating","canvas-keyboard-response","179","362759","0.0-11.0-0.84","115","2022-3-31","14:50:11","0","22","[""White""]","No","Female","862982","","","","","","","","102","140","57","10","33","0",""
"null","null","clear_screen","canvas-keyboard-response","180","363017","0.0-11.0-1.84","115","2022-3-31","14:50:11","0","22","[""White""]","No","Female","862982","","","","","","","","102","140","57","10","33","",""
"1723","9","rating","canvas-keyboard-response","181","364751","0.0-11.0-0.85","115","2022-3-31","14:50:11","0","22","[""White""]","No","Female","862982","","","","","","","","70","113","140","10","10","1",""
"null","null","clear_screen","canvas-keyboard-response","182","365013","0.0-11.0-1.85","115","2022-3-31","14:50:11","0","22","[""White""]","No","Female","862982","","","","","","","","70","113","140","10","10","",""
"6281","5","rating","canvas-keyboard-response","183","371303","0.0-11.0-0.86","115","2022-3-31","14:50:11","0","22","[""White""]","No","Female","862982","","","","","","","","196","30","57","25","25","0",""
"null","null","clear_screen","canvas-keyboard-response","184","371565","0.0-11.0-1.86","115","2022-3-31","14:50:11","0","22","[""White""]","No","Female","862982","","","","","","","","196","30","57","25","25","",""
"1883","4","rating","canvas-keyboard-response","185","373462","0.0-11.0-0.87","115","2022-3-31","14:50:11","0","22","[""White""]","No","Female","862982","","","","","","","","215","57","85","25","33","1",""
"null","null","clear_screen","canvas-keyboard-response","186","373723","0.0-11.0-1.87","115","2022-3-31","14:50:11","0","22","[""White""]","No","Female","862982","","","","","","","","215","57","85","25","33","",""
"1825","4","rating","canvas-keyboard-response","187","375559","0.0-11.0-0.88","115","2022-3-31","14:50:11","0","22","[""White""]","No","Female","862982","","","","","","","","35","57","85","10","25","1",""
"null","null","clear_screen","canvas-keyboard-response","188","375817","0.0-11.0-1.88","115","2022-3-31","14:50:11","0","22","[""White""]","No","Female","862982","","","","","","","","35","57","85","10","25","",""
"1329","2","rating","canvas-keyboard-response","189","377158","0.0-11.0-0.89","115","2022-3-31","14:50:11","0","22","[""White""]","No","Female","862982","","","","","","","","110","140","140","10","40","0",""
"null","null","clear_screen","canvas-keyboard-response","190","377420","0.0-11.0-1.89","115","2022-3-31","14:50:11","0","22","[""White""]","No","Female","862982","","","","","","","","110","140","140","10","40","",""
"1089","1","rating","canvas-keyboard-response","191","378519","0.0-11.0-0.90","115","2022-3-31","14:50:11","0","22","[""White""]","No","Female","862982","","","","","","","","105","140","140","10","33","1",""
"null","null","clear_screen","canvas-keyboard-response","192","378777","0.0-11.0-1.90","115","2022-3-31","14:50:11","0","22","[""White""]","No","Female","862982","","","","","","","","105","140","140","10","33","",""
"1234","1","rating","canvas-keyboard-response","193","380023","0.0-11.0-0.91","115","2022-3-31","14:50:11","0","22","[""White""]","No","Female","862982","","","","","","","","96","140","30","10","25","1",""
"null","null","clear_screen","canvas-keyboard-response","194","380283","0.0-11.0-1.91","115","2022-3-31","14:50:11","0","22","[""White""]","No","Female","862982","","","","","","","","96","140","30","10","25","",""
"2954","1","rating","canvas-keyboard-response","195","383247","0.0-11.0-0.92","115","2022-3-31","14:50:11","0","22","[""White""]","No","Female","862982","","","","","","","","71","113","30","10","17","0",""
"null","null","clear_screen","canvas-keyboard-response","196","383508","0.0-11.0-1.92","115","2022-3-31","14:50:11","0","22","[""White""]","No","Female","862982","","","","","","","","71","113","30","10","17","",""
"1911","7","rating","canvas-keyboard-response","197","385431","0.0-11.0-0.93","115","2022-3-31","14:50:11","0","22","[""White""]","No","Female","862982","","","","","","","","52","85","85","10","17","0",""
"null","null","clear_screen","canvas-keyboard-response","198","385695","0.0-11.0-1.93","115","2022-3-31","14:50:11","0","22","[""White""]","No","Female","862982","","","","","","","","52","85","85","10","17","",""
"1569","4","rating","canvas-keyboard-response","199","387279","0.0-11.0-0.94","115","2022-3-31","14:50:11","0","22","[""White""]","No","Female","862982","","","","","","","","189","140","113","17","33","1",""
"null","null","clear_screen","canvas-keyboard-response","200","387537","0.0-11.0-1.94","115","2022-3-31","14:50:11","0","22","[""White""]","No","Female","862982","","","","","","","","189","140","113","17","33","",""
"3182","8","rating","canvas-keyboard-response","201","390735","0.0-11.0-0.95","115","2022-3-31","14:50:11","0","22","[""White""]","No","Female","862982","","","","","","","","277","85","85","33","40","1",""
"null","null","clear_screen","canvas-keyboard-response","202","390995","0.0-11.0-1.95","115","2022-3-31","14:50:11","0","22","[""White""]","No","Female","862982","","","","","","","","277","85","85","33","40","",""
"1361","1","rating","canvas-keyboard-response","203","392367","0.0-11.0-0.96","115","2022-3-31","14:50:11","0","22","[""White""]","No","Female","862982","","","","","","","","4","30","140","10","10","0",""
"null","null","clear_screen","canvas-keyboard-response","204","392631","0.0-11.0-1.96","115","2022-3-31","14:50:11","0","22","[""White""]","No","Female","862982","","","","","","","","4","30","140","10","10","",""
"2700","4","rating","canvas-keyboard-response","205","395343","0.0-11.0-0.97","115","2022-3-31","14:50:11","0","22","[""White""]","No","Female","862982","","","","","","","","11","30","57","10","25","0",""
"null","null","clear_screen","canvas-keyboard-response","206","395604","0.0-11.0-1.97","115","2022-3-31","14:50:11","0","22","[""White""]","No","Female","862982","","","","","","","","11","30","57","10","25","",""
"1534","4","rating","canvas-keyboard-response","207","397151","0.0-11.0-0.98","115","2022-3-31","14:50:11","0","22","[""White""]","No","Female","862982","","","","","","","","140","57","85","17","33","1",""
"null","null","clear_screen","canvas-keyboard-response","208","397409","0.0-11.0-1.98","115","2022-3-31","14:50:11","0","22","[""White""]","No","Female","862982","","","","","","","","140","57","85","17","33","",""
"2673","3","rating","canvas-keyboard-response","209","400095","0.0-11.0-0.99","115","2022-3-31","14:50:11","0","22","[""White""]","No","Female","862982","","","","","","","","83","113","85","10","33","0",""
"null","null","clear_screen","canvas-keyboard-response","210","400356","0.0-11.0-1.99","115","2022-3-31","14:50:11","0","22","[""White""]","No","Female","862982","","","","","","","","83","113","85","10","33","",""
"3098","4","rating","canvas-keyboard-response","211","403463","0.0-11.0-0.100","115","2022-3-31","14:50:11","0","22","[""White""]","No","Female","862982","","","","","","","","276","85","57","33","40","1",""
"null","null","clear_screen","canvas-keyboard-response","212","403724","0.0-11.0-1.100","115","2022-3-31","14:50:11","0","22","[""White""]","No","Female","862982","","","","","","","","276","85","57","33","40","",""
"2127","3","rating","canvas-keyboard-response","213","405863","0.0-11.0-0.101","115","2022-3-31","14:50:11","0","22","[""White""]","No","Female","862982","","","","","","","","145","57","85","17","40","1",""
"null","null","clear_screen","canvas-keyboard-response","214","406125","0.0-11.0-1.101","115","2022-3-31","14:50:11","0","22","[""White""]","No","Female","862982","","","","","","","","145","57","85","17","40","",""
"2304","3","rating","canvas-keyboard-response","215","408439","0.0-11.0-0.102","115","2022-3-31","14:50:11","0","22","[""White""]","No","Female","862982","","","","","","","","31","57","113","10","17","0",""
"null","null","clear_screen","canvas-keyboard-response","216","408699","0.0-11.0-1.102","115","2022-3-31","14:50:11","0","22","[""White""]","No","Female","862982","","","","","","","","31","57","113","10","17","",""
"2721","2","rating","canvas-keyboard-response","217","411431","0.0-11.0-0.103","115","2022-3-31","14:50:11","0","22","[""White""]","No","Female","862982","","","","","","","","246","140","30","25","33","0",""
"null","null","clear_screen","canvas-keyboard-response","218","411691","0.0-11.0-1.103","115","2022-3-31","14:50:11","0","22","[""White""]","No","Female","862982","","","","","","","","246","140","30","25","33","",""
"1976","2","rating","canvas-keyboard-response","219","413679","0.0-11.0-0.104","115","2022-3-31","14:50:11","0","22","[""White""]","No","Female","862982","","","","","","","","256","30","57","33","33","0",""
"null","null","clear_screen","canvas-keyboard-response","220","413938","0.0-11.0-1.104","115","2022-3-31","14:50:11","0","22","[""White""]","No","Female","862982","","","","","","","","256","30","57","33","33","",""
"4231","4","rating","canvas-keyboard-response","221","418183","0.0-11.0-0.105","115","2022-3-31","14:50:11","0","22","[""White""]","No","Female","862982","","","","","","","","229","85","140","25","33","1",""
"null","null","clear_screen","canvas-keyboard-response","222","418444","0.0-11.0-1.105","115","2022-3-31","14:50:11","0","22","[""White""]","No","Female","862982","","","","","","","","229","85","140","25","33","",""
"2871","3","rating","canvas-keyboard-response","223","421328","0.0-11.0-0.106","115","2022-3-31","14:50:11","0","22","[""White""]","No","Female","862982","","","","","","","","150","85","30","17","25","0",""
"null","null","clear_screen","canvas-keyboard-response","224","421587","0.0-11.0-1.106","115","2022-3-31","14:50:11","0","22","[""White""]","No","Female","862982","","","","","","","","150","85","30","17","25","",""
"2313","4","rating","canvas-keyboard-response","225","423911","0.0-11.0-0.107","115","2022-3-31","14:50:11","0","22","[""White""]","No","Female","862982","","","","","","","","243","113","85","25","40","1",""
"null","null","clear_screen","canvas-keyboard-response","226","424173","0.0-11.0-1.107","115","2022-3-31","14:50:11","0","22","[""White""]","No","Female","862982","","","","","","","","243","113","85","25","40","",""
"2243","4","rating","canvas-keyboard-response","227","426431","0.0-11.0-0.108","115","2022-3-31","14:50:11","0","22","[""White""]","No","Female","862982","","","","","","","","94","140","113","10","17","1",""
"null","null","clear_screen","canvas-keyboard-response","228","426693","0.0-11.0-1.108","115","2022-3-31","14:50:11","0","22","[""White""]","No","Female","862982","","","","","","","","94","140","113","10","17","",""
"1686","2","rating","canvas-keyboard-response","229","428391","0.0-11.0-0.109","115","2022-3-31","14:50:11","0","22","[""White""]","No","Female","862982","","","","","","","","23","30","113","10","40","1",""
"null","null","clear_screen","canvas-keyboard-response","230","428654","0.0-11.0-1.109","115","2022-3-31","14:50:11","0","22","[""White""]","No","Female","862982","","","","","","","","23","30","113","10","40","",""
"3477","4","rating","canvas-keyboard-response","231","432143","0.0-11.0-0.110","115","2022-3-31","14:50:11","0","22","[""White""]","No","Female","862982","","","","","","","","216","57","113","25","33","0",""
"null","null","clear_screen","canvas-keyboard-response","232","432404","0.0-11.0-1.110","115","2022-3-31","14:50:11","0","22","[""White""]","No","Female","862982","","","","","","","","216","57","113","25","33","",""
"2015","2","rating","canvas-keyboard-response","233","434430","0.0-11.0-0.111","115","2022-3-31","14:50:11","0","22","[""White""]","No","Female","862982","","","","","","","","32","57","140","10","17","0",""
"null","null","clear_screen","canvas-keyboard-response","234","434691","0.0-11.0-1.111","115","2022-3-31","14:50:11","0","22","[""White""]","No","Female","862982","","","","","","","","32","57","140","10","17","",""
"1574","2","rating","canvas-keyboard-response","235","436278","0.0-11.0-0.112","115","2022-3-31","14:50:11","0","22","[""White""]","No","Female","862982","","","","","","","","181","140","30","17","25","1",""
"null","null","clear_screen","canvas-keyboard-response","236","436540","0.0-11.0-1.112","115","2022-3-31","14:50:11","0","22","[""White""]","No","Female","862982","","","","","","","","181","140","30","17","25","",""
"1280","2","rating","canvas-keyboard-response","237","437831","0.0-11.0-0.113","115","2022-3-31","14:50:11","0","22","[""White""]","No","Female","862982","","","","","","","","36","57","113","10","25","1",""
"null","null","clear_screen","canvas-keyboard-response","238","438090","0.0-11.0-1.113","115","2022-3-31","14:50:11","0","22","[""White""]","No","Female","862982","","","","","","","","36","57","113","10","25","",""
"1640","3","rating","canvas-keyboard-response","239","439743","0.0-11.0-0.114","115","2022-3-31","14:50:11","0","22","[""White""]","No","Female","862982","","","","","","","","279","85","140","33","40","1",""
"null","null","clear_screen","canvas-keyboard-response","240","440006","0.0-11.0-1.114","115","2022-3-31","14:50:11","0","22","[""White""]","No","Female","862982","","","","","","","","279","85","140","33","40","",""
"1333","5","rating","canvas-keyboard-response","241","441351","0.0-11.0-0.115","115","2022-3-31","14:50:11","0","22","[""White""]","No","Female","862982","","","","","","","","135","57","85","17","25","0",""
"null","null","clear_screen","canvas-keyboard-response","242","441609","0.0-11.0-1.115","115","2022-3-31","14:50:11","0","22","[""White""]","No","Female","862982","","","","","","","","135","57","85","17","25","",""
"1348","5","rating","canvas-keyboard-response","243","442967","0.0-11.0-0.116","115","2022-3-31","14:50:11","0","22","[""White""]","No","Female","862982","","","","","","","","271","57","113","33","40","0",""
"null","null","clear_screen","canvas-keyboard-response","244","443227","0.0-11.0-1.116","115","2022-3-31","14:50:11","0","22","[""White""]","No","Female","862982","","","","","","","","271","57","113","33","40","",""
"1675","3","rating","canvas-keyboard-response","245","444911","0.0-11.0-0.117","115","2022-3-31","14:50:11","0","22","[""White""]","No","Female","862982","","","","","","","","272","57","140","33","40","0",""
"null","null","clear_screen","canvas-keyboard-response","246","445171","0.0-11.0-1.117","115","2022-3-31","14:50:11","0","22","[""White""]","No","Female","862982","","","","","","","","272","57","140","33","40","",""
"1504","5","rating","canvas-keyboard-response","247","446687","0.0-11.0-0.118","115","2022-3-31","14:50:11","0","22","[""White""]","No","Female","862982","","","","","","","","78","113","85","10","25","1",""
"null","null","clear_screen","canvas-keyboard-response","248","446947","0.0-11.0-1.118","115","2022-3-31","14:50:11","0","22","[""White""]","No","Female","862982","","","","","","","","78","113","85","10","25","",""
"6829","4","rating","canvas-keyboard-response","249","453790","0.0-11.0-0.119","115","2022-3-31","14:50:11","0","22","[""White""]","No","Female","862982","","","","","","","","16","30","57","10","33","1",""
"null","null","clear_screen","canvas-keyboard-response","250","454051","0.0-11.0-1.119","115","2022-3-31","14:50:11","0","22","[""White""]","No","Female","862982","","","","","","","","16","30","57","10","33","",""
"2677","3","rating","canvas-keyboard-response","251","456743","0.0-11.0-0.120","115","2022-3-31","14:50:11","0","22","[""White""]","No","Female","862982","","","","","","","","109","140","113","10","40","0",""
"null","null","clear_screen","canvas-keyboard-response","252","457004","0.0-11.0-1.120","115","2022-3-31","14:50:11","0","22","[""White""]","No","Female","862982","","","","","","","","109","140","113","10","40","",""
"1384","3","rating","canvas-keyboard-response","253","458398","0.0-11.0-0.121","115","2022-3-31","14:50:11","0","22","[""White""]","No","Female","862982","","","","","","","","292","30","85","40","40","1",""
"null","null","clear_screen","canvas-keyboard-response","254","458658","0.0-11.0-1.121","115","2022-3-31","14:50:11","0","22","[""White""]","No","Female","862982","","","","","","","","292","30","85","40","40","",""
"1841","2","rating","canvas-keyboard-response","255","460511","0.0-11.0-0.122","115","2022-3-31","14:50:11","0","22","[""White""]","No","Female","862982","","","","","","","","81","113","30","10","33","1",""
"null","null","clear_screen","canvas-keyboard-response","256","460772","0.0-11.0-1.122","115","2022-3-31","14:50:11","0","22","[""White""]","No","Female","862982","","","","","","","","81","113","30","10","33","",""
"1808","1","rating","canvas-keyboard-response","257","462591","0.0-11.0-0.123","115","2022-3-31","14:50:11","0","22","[""White""]","No","Female","862982","","","","","","","","91","140","30","10","17","1",""
"null","null","clear_screen","canvas-keyboard-response","258","462852","0.0-11.0-1.123","115","2022-3-31","14:50:11","0","22","[""White""]","No","Female","862982","","","","","","","","91","140","30","10","17","",""
"1021","2","rating","canvas-keyboard-response","259","463887","0.0-11.0-0.124","115","2022-3-31","14:50:11","0","22","[""White""]","No","Female","862982","","","","","","","","64","85","140","10","33","1",""
"null","null","clear_screen","canvas-keyboard-response","260","464148","0.0-11.0-1.124","115","2022-3-31","14:50:11","0","22","[""White""]","No","Female","862982","","","","","","","","64","85","140","10","33","",""
"1654","3","rating","canvas-keyboard-response","261","465814","0.0-11.0-0.125","115","2022-3-31","14:50:11","0","22","[""White""]","No","Female","862982","","","","","","","","211","57","113","25","25","1",""
"null","null","clear_screen","canvas-keyboard-response","262","466076","0.0-11.0-1.125","115","2022-3-31","14:50:11","0","22","[""White""]","No","Female","862982","","","","","","","","211","57","113","25","25","",""
"1670","3","rating","canvas-keyboard-response","263","467760","0.0-11.0-0.126","115","2022-3-31","14:50:11","0","22","[""White""]","No","Female","862982","","","","","","","","99","140","113","10","25","0",""
"null","null","clear_screen","canvas-keyboard-response","264","468020","0.0-11.0-1.126","115","2022-3-31","14:50:11","0","22","[""White""]","No","Female","862982","","","","","","","","99","140","113","10","25","",""
"1712","2","rating","canvas-keyboard-response","265","469743","0.0-11.0-0.127","115","2022-3-31","14:50:11","0","22","[""White""]","No","Female","862982","","","","","","","","17","30","85","10","33","1",""
"null","null","clear_screen","canvas-keyboard-response","266","470005","0.0-11.0-1.127","115","2022-3-31","14:50:11","0","22","[""White""]","No","Female","862982","","","","","","","","17","30","85","10","33","",""
"1739","6","rating","canvas-keyboard-response","267","471759","0.0-11.0-0.128","115","2022-3-31","14:50:11","0","22","[""White""]","No","Female","862982","","","","","","","","153","85","113","17","25","1",""
"null","null","clear_screen","canvas-keyboard-response","268","472022","0.0-11.0-1.128","115","2022-3-31","14:50:11","0","22","[""White""]","No","Female","862982","","","","","","","","153","85","113","17","25","",""
"1596","1","rating","canvas-keyboard-response","269","473631","0.0-11.0-0.129","115","2022-3-31","14:50:11","0","22","[""White""]","No","Female","862982","","","","","","","","8","30","113","10","17","0",""
"null","null","clear_screen","canvas-keyboard-response","270","473892","0.0-11.0-1.129","115","2022-3-31","14:50:11","0","22","[""White""]","No","Female","862982","","","","","","","","8","30","113","10","17","",""
"1815","2","rating","canvas-keyboard-response","271","475718","0.0-11.0-0.130","115","2022-3-31","14:50:11","0","22","[""White""]","No","Female","862982","","","","","","","","84","113","113","10","33","0",""
"null","null","clear_screen","canvas-keyboard-response","272","475978","0.0-11.0-1.130","115","2022-3-31","14:50:11","0","22","[""White""]","No","Female","862982","","","","","","","","84","113","113","10","33","",""
"3563","4","rating","canvas-keyboard-response","273","479552","0.0-11.0-0.131","115","2022-3-31","14:50:11","0","22","[""White""]","No","Female","862982","","","","","","","","275","85","30","33","40","0",""
"null","null","clear_screen","canvas-keyboard-response","274","479813","0.0-11.0-1.131","115","2022-3-31","14:50:11","0","22","[""White""]","No","Female","862982","","","","","","","","275","85","30","33","40","",""
"1187","3","rating","canvas-keyboard-response","275","481015","0.0-11.0-0.132","115","2022-3-31","14:50:11","0","22","[""White""]","No","Female","862982","","","","","","","","121","30","57","17","33","0",""
"null","null","clear_screen","canvas-keyboard-response","276","481276","0.0-11.0-1.132","115","2022-3-31","14:50:11","0","22","[""White""]","No","Female","862982","","","","","","","","121","30","57","17","33","",""
"2240","4","rating","canvas-keyboard-response","277","483526","0.0-11.0-0.133","115","2022-3-31","14:50:11","0","22","[""White""]","No","Female","862982","","","","","","","","130","57","85","17","17","1",""
"null","null","clear_screen","canvas-keyboard-response","278","483788","0.0-11.0-1.133","115","2022-3-31","14:50:11","0","22","[""White""]","No","Female","862982","","","","","","","","130","57","85","17","17","",""
"1832","4","rating","canvas-keyboard-response","279","485631","0.0-11.0-0.134","115","2022-3-31","14:50:11","0","22","[""White""]","No","Female","862982","","","","","","","","225","85","30","25","33","1",""
"null","null","clear_screen","canvas-keyboard-response","280","485895","0.0-11.0-1.134","115","2022-3-31","14:50:11","0","22","[""White""]","No","Female","862982","","","","","","","","225","85","30","25","33","",""
"1257","4","rating","canvas-keyboard-response","281","487166","0.0-11.0-0.135","115","2022-3-31","14:50:11","0","22","[""White""]","No","Female","862982","","","","","","","","118","30","113","17","25","0",""
"null","null","clear_screen","canvas-keyboard-response","282","487431","0.0-11.0-1.135","115","2022-3-31","14:50:11","0","22","[""White""]","No","Female","862982","","","","","","","","118","30","113","17","25","",""
"3773","5","rating","canvas-keyboard-response","283","491215","0.0-11.0-0.136","115","2022-3-31","14:50:11","0","22","[""White""]","No","Female","862982","","","","","","","","143","57","30","17","40","0",""
"null","null","clear_screen","canvas-keyboard-response","284","491476","0.0-11.0-1.136","115","2022-3-31","14:50:11","0","22","[""White""]","No","Female","862982","","","","","","","","143","57","30","17","40","",""
"1857","6","rating","canvas-keyboard-response","285","493343","0.0-11.0-0.137","115","2022-3-31","14:50:11","0","22","[""White""]","No","Female","862982","","","","","","","","168","113","85","17","25","0",""
"null","null","clear_screen","canvas-keyboard-response","286","493607","0.0-11.0-1.137","115","2022-3-31","14:50:11","0","22","[""White""]","No","Female","862982","","","","","","","","168","113","85","17","25","",""
"1733","5","rating","canvas-keyboard-response","287","495351","0.0-11.0-0.138","115","2022-3-31","14:50:11","0","22","[""White""]","No","Female","862982","","","","","","","","51","85","57","10","17","1",""
"null","null","clear_screen","canvas-keyboard-response","288","495612","0.0-11.0-1.138","115","2022-3-31","14:50:11","0","22","[""White""]","No","Female","862982","","","","","","","","51","85","57","10","17","",""
"1848","4","rating","canvas-keyboard-response","289","497471","0.0-11.0-0.139","115","2022-3-31","14:50:11","0","22","[""White""]","No","Female","862982","","","","","","","","162","85","85","17","40","1",""
"null","null","clear_screen","canvas-keyboard-response","290","497732","0.0-11.0-1.139","115","2022-3-31","14:50:11","0","22","[""White""]","No","Female","862982","","","","","","","","162","85","85","17","40","",""
"1497","2","rating","canvas-keyboard-response","291","499239","0.0-11.0-0.140","115","2022-3-31","14:50:11","0","22","[""White""]","No","Female","862982","","","","","","","","122","30","85","17","33","0",""
"null","null","clear_screen","canvas-keyboard-response","292","499500","0.0-11.0-1.140","115","2022-3-31","14:50:11","0","22","[""White""]","No","Female","862982","","","","","","","","122","30","85","17","33","",""
"2024","4","rating","canvas-keyboard-response","293","501534","0.0-11.0-0.141","115","2022-3-31","14:50:11","0","22","[""White""]","No","Female","862982","","","","","","","","233","85","113","25","40","1",""
"null","null","clear_screen","canvas-keyboard-response","294","501796","0.0-11.0-1.141","115","2022-3-31","14:50:11","0","22","[""White""]","No","Female","862982","","","","","","","","233","85","113","25","40","",""
"1202","4","rating","canvas-keyboard-response","295","503008","0.0-11.0-0.142","115","2022-3-31","14:50:11","0","22","[""White""]","No","Female","862982","","","","","","","","156","85","57","17","33","1",""
"null","null","clear_screen","canvas-keyboard-response","296","503268","0.0-11.0-1.142","115","2022-3-31","14:50:11","0","22","[""White""]","No","Female","862982","","","","","","","","156","85","57","17","33","",""
"1248","5","rating","canvas-keyboard-response","297","504526","0.0-11.0-0.143","115","2022-3-31","14:50:11","0","22","[""White""]","No","Female","862982","","","","","","","","159","85","140","17","33","0",""
"null","null","clear_screen","canvas-keyboard-response","298","504785","0.0-11.0-1.143","115","2022-3-31","14:50:11","0","22","[""White""]","No","Female","862982","","","","","","","","159","85","140","17","33","",""
"1542","5","rating","canvas-keyboard-response","299","506343","0.0-11.0-0.144","115","2022-3-31","14:50:11","0","22","[""White""]","No","Female","862982","","","","","","","","241","113","30","25","40","1",""
"null","null","clear_screen","canvas-keyboard-response","300","506602","0.0-11.0-1.144","115","2022-3-31","14:50:11","0","22","[""White""]","No","Female","862982","","","","","","","","241","113","30","25","40","",""
"2456","9","rating","canvas-keyboard-response","301","509070","0.0-11.0-0.145","115","2022-3-31","14:50:11","0","22","[""White""]","No","Female","862982","","","","","","","","115","30","30","17","25","0",""
"null","null","clear_screen","canvas-keyboard-response","302","509330","0.0-11.0-1.145","115","2022-3-31","14:50:11","0","22","[""White""]","No","Female","862982","","","","","","","","115","30","30","17","25","",""
"5022","6","rating","canvas-keyboard-response","303","514367","0.0-11.0-0.146","115","2022-3-31","14:50:11","0","22","[""White""]","No","Female","862982","","","","","","","","34","57","57","10","25","1",""
"null","null","clear_screen","canvas-keyboard-response","304","514626","0.0-11.0-1.146","115","2022-3-31","14:50:11","0","22","[""White""]","No","Female","862982","","","","","","","","34","57","57","10","25","",""
"2417","5","rating","canvas-keyboard-response","305","517054","0.0-11.0-0.147","115","2022-3-31","14:50:11","0","22","[""White""]","No","Female","862982","","","","","","","","154","85","140","17","25","0",""
"null","null","clear_screen","canvas-keyboard-response","306","517316","0.0-11.0-1.147","115","2022-3-31","14:50:11","0","22","[""White""]","No","Female","862982","","","","","","","","154","85","140","17","25","",""
"1670","3","rating","canvas-keyboard-response","307","519000","0.0-11.0-0.148","115","2022-3-31","14:50:11","0","22","[""White""]","No","Female","862982","","","","","","","","257","30","85","33","33","1",""
"null","null","clear_screen","canvas-keyboard-response","308","519263","0.0-11.0-1.148","115","2022-3-31","14:50:11","0","22","[""White""]","No","Female","862982","","","","","","","","257","30","85","33","33","",""
"1927","4","rating","canvas-keyboard-response","309","521199","0.0-11.0-0.149","115","2022-3-31","14:50:11","0","22","[""White""]","No","Female","862982","","","","","","","","26","57","113","10","10","0",""
"null","null","clear_screen","canvas-keyboard-response","310","521460","0.0-11.0-1.149","115","2022-3-31","14:50:11","0","22","[""White""]","No","Female","862982","","","","","","","","26","57","113","10","10","",""
"2360","4","rating","canvas-keyboard-response","311","523831","0.0-11.0-0.150","115","2022-3-31","14:50:11","0","22","[""White""]","No","Female","862982","","","","","","","","299","85","140","40","40","1",""
"null","null","clear_screen","canvas-keyboard-response","312","524090","0.0-11.0-1.150","115","2022-3-31","14:50:11","0","22","[""White""]","No","Female","862982","","","","","","","","299","85","140","40","40","",""
"2234","3","rating","canvas-keyboard-response","313","526335","0.0-11.0-0.151","115","2022-3-31","14:50:11","0","22","[""White""]","No","Female","862982","","","","","","","","117","30","85","17","25","0",""
"null","null","clear_screen","canvas-keyboard-response","314","526598","0.0-11.0-1.151","115","2022-3-31","14:50:11","0","22","[""White""]","No","Female","862982","","","","","","","","117","30","85","17","25","",""
"1419","3","rating","canvas-keyboard-response","315","528031","0.0-11.0-0.152","115","2022-3-31","14:50:11","0","22","[""White""]","No","Female","862982","","","","","","","","112","30","85","17","17","0",""
"null","null","clear_screen","canvas-keyboard-response","316","528291","0.0-11.0-1.152","115","2022-3-31","14:50:11","0","22","[""White""]","No","Female","862982","","","","","","","","112","30","85","17","17","",""
"1817","4","rating","canvas-keyboard-response","317","530119","0.0-11.0-0.153","115","2022-3-31","14:50:11","0","22","[""White""]","No","Female","862982","","","","","","","","67","85","85","10","40","0",""
"null","null","clear_screen","canvas-keyboard-response","318","530382","0.0-11.0-1.153","115","2022-3-31","14:50:11","0","22","[""White""]","No","Female","862982","","","","","","","","67","85","85","10","40","",""
"1676","1","rating","canvas-keyboard-response","319","532071","0.0-11.0-0.154","115","2022-3-31","14:50:11","0","22","[""White""]","No","Female","862982","","","","","","","","251","140","30","25","40","1",""
"null","null","clear_screen","canvas-keyboard-response","320","532331","0.0-11.0-1.154","115","2022-3-31","14:50:11","0","22","[""White""]","No","Female","862982","","","","","","","","251","140","30","25","40","",""
"1295","1","rating","canvas-keyboard-response","321","533638","0.0-11.0-0.155","115","2022-3-31","14:50:11","0","22","[""White""]","No","Female","862982","","","","","","","","69","85","140","10","40","0",""
"null","null","clear_screen","canvas-keyboard-response","322","533900","0.0-11.0-1.155","115","2022-3-31","14:50:11","0","22","[""White""]","No","Female","862982","","","","","","","","69","85","140","10","40","",""
"1743","2","rating","canvas-keyboard-response","323","535655","0.0-11.0-0.156","115","2022-3-31","14:50:11","0","22","[""White""]","No","Female","862982","","","","","","","","244","113","113","25","40","0",""
"null","null","clear_screen","canvas-keyboard-response","324","535919","0.0-11.0-1.156","115","2022-3-31","14:50:11","0","22","[""White""]","No","Female","862982","","","","","","","","244","113","113","25","40","",""
"1186","1","rating","canvas-keyboard-response","325","537119","0.0-11.0-0.157","115","2022-3-31","14:50:11","0","22","[""White""]","No","Female","862982","","","","","","","","197","30","85","25","25","0",""
"null","null","clear_screen","canvas-keyboard-response","326","537379","0.0-11.0-1.157","115","2022-3-31","14:50:11","0","22","[""White""]","No","Female","862982","","","","","","","","197","30","85","25","25","",""
"2176","3","rating","canvas-keyboard-response","327","539567","0.0-11.0-0.158","115","2022-3-31","14:50:11","0","22","[""White""]","No","Female","862982","","","","","","","","158","85","113","17","33","0",""
"null","null","clear_screen","canvas-keyboard-response","328","539828","0.0-11.0-1.158","115","2022-3-31","14:50:11","0","22","[""White""]","No","Female","862982","","","","","","","","158","85","113","17","33","",""
"1495","3","rating","canvas-keyboard-response","329","541335","0.0-11.0-0.159","115","2022-3-31","14:50:11","0","22","[""White""]","No","Female","862982","","","","","","","","88","113","85","10","40","0",""
"null","null","clear_screen","canvas-keyboard-response","330","541594","0.0-11.0-1.159","115","2022-3-31","14:50:11","0","22","[""White""]","No","Female","862982","","","","","","","","88","113","85","10","40","",""
"1152","3","rating","canvas-keyboard-response","331","542759","0.0-11.0-0.160","115","2022-3-31","14:50:11","0","22","[""White""]","No","Female","862982","","","","","","","","188","140","85","17","33","0",""
"null","null","clear_screen","canvas-keyboard-response","332","543022","0.0-11.0-1.160","115","2022-3-31","14:50:11","0","22","[""White""]","No","Female","862982","","","","","","","","188","140","85","17","33","",""
"1835","3","rating","canvas-keyboard-response","333","544871","0.0-11.0-0.161","115","2022-3-31","14:50:11","0","22","[""White""]","No","Female","862982","","","","","","","","119","30","140","17","25","1",""
"null","null","clear_screen","canvas-keyboard-response","334","545132","0.0-11.0-1.161","115","2022-3-31","14:50:11","0","22","[""White""]","No","Female","862982","","","","","","","","119","30","140","17","25","",""
"1735","5","rating","canvas-keyboard-response","335","546879","0.0-11.0-0.162","115","2022-3-31","14:50:11","0","22","[""White""]","No","Female","862982","","","","","","","","148","85","113","17","17","0",""
"null","null","clear_screen","canvas-keyboard-response","336","547139","0.0-11.0-1.162","115","2022-3-31","14:50:11","0","22","[""White""]","No","Female","862982","","","","","","","","148","85","113","17","17","",""
"1363","4","rating","canvas-keyboard-response","337","548511","0.0-11.0-0.163","115","2022-3-31","14:50:11","0","22","[""White""]","No","Female","862982","","","","","","","","12","30","85","10","25","1",""
"null","null","clear_screen","canvas-keyboard-response","338","548772","0.0-11.0-1.163","115","2022-3-31","14:50:11","0","22","[""White""]","No","Female","862982","","","","","","","","12","30","85","10","25","",""
"1239","5","rating","canvas-keyboard-response","339","550023","0.0-11.0-0.164","115","2022-3-31","14:50:11","0","22","[""White""]","No","Female","862982","","","","","","","","285","113","140","33","40","0",""
"null","null","clear_screen","canvas-keyboard-response","340","550284","0.0-11.0-1.164","115","2022-3-31","14:50:11","0","22","[""White""]","No","Female","862982","","","","","","","","285","113","140","33","40","",""
"1830","2","rating","canvas-keyboard-response","341","552127","0.0-11.0-0.165","115","2022-3-31","14:50:11","0","22","[""White""]","No","Female","862982","","","","","","","","218","57","30","25","40","1",""
"null","null","clear_screen","canvas-keyboard-response","342","552388","0.0-11.0-1.165","115","2022-3-31","14:50:11","0","22","[""White""]","No","Female","862982","","","","","","","","218","57","30","25","40","",""
"1560","3","rating","canvas-keyboard-response","343","553959","0.0-11.0-0.166","115","2022-3-31","14:50:11","0","22","[""White""]","No","Female","862982","","","","","","","","93","140","85","10","17","1",""
"null","null","clear_screen","canvas-keyboard-response","344","554218","0.0-11.0-1.166","115","2022-3-31","14:50:11","0","22","[""White""]","No","Female","862982","","","","","","","","93","140","85","10","17","",""
"1882","5","rating","canvas-keyboard-response","345","556112","0.0-11.0-0.167","115","2022-3-31","14:50:11","0","22","[""White""]","No","Female","862982","","","","","","","","283","113","85","33","40","0",""
"null","null","clear_screen","canvas-keyboard-response","346","556371","0.0-11.0-1.167","115","2022-3-31","14:50:11","0","22","[""White""]","No","Female","862982","","","","","","","","283","113","85","33","40","",""
"1297","4","rating","canvas-keyboard-response","347","557679","0.0-11.0-0.168","115","2022-3-31","14:50:11","0","22","[""White""]","No","Female","862982","","","","","","","","192","140","57","17","40","1",""
"null","null","clear_screen","canvas-keyboard-response","348","557937","0.0-11.0-1.168","115","2022-3-31","14:50:11","0","22","[""White""]","No","Female","862982","","","","","","","","192","140","57","17","40","",""
"1322","5","rating","canvas-keyboard-response","349","559271","0.0-11.0-0.169","115","2022-3-31","14:50:11","0","22","[""White""]","No","Female","862982","","","","","","","","134","57","57","17","25","0",""
"null","null","clear_screen","canvas-keyboard-response","350","559532","0.0-11.0-1.169","115","2022-3-31","14:50:11","0","22","[""White""]","No","Female","862982","","","","","","","","134","57","57","17","25","",""
"1729","5","rating","canvas-keyboard-response","351","561271","0.0-11.0-0.170","115","2022-3-31","14:50:11","0","22","[""White""]","No","Female","862982","","","","","","","","25","57","85","10","10","0",""
"null","null","clear_screen","canvas-keyboard-response","352","561531","0.0-11.0-1.170","115","2022-3-31","14:50:11","0","22","[""White""]","No","Female","862982","","","","","","","","25","57","85","10","10","",""
"1272","2","rating","canvas-keyboard-response","353","562814","0.0-11.0-0.171","115","2022-3-31","14:50:11","0","22","[""White""]","No","Female","862982","","","","","","","","65","85","30","10","40","1",""
"null","null","clear_screen","canvas-keyboard-response","354","563076","0.0-11.0-1.171","115","2022-3-31","14:50:11","0","22","[""White""]","No","Female","862982","","","","","","","","65","85","30","10","40","",""
"1081","3","rating","canvas-keyboard-response","355","564167","0.0-11.0-0.172","115","2022-3-31","14:50:11","0","22","[""White""]","No","Female","862982","","","","","","","","30","57","85","10","17","0",""
"null","null","clear_screen","canvas-keyboard-response","356","564429","0.0-11.0-1.172","115","2022-3-31","14:50:11","0","22","[""White""]","No","Female","862982","","","","","","","","30","57","85","10","17","",""
"1965","4","rating","canvas-keyboard-response","357","566408","0.0-11.0-0.173","115","2022-3-31","14:50:11","0","22","[""White""]","No","Female","862982","","","","","","","","217","57","140","25","33","0",""
"null","null","clear_screen","canvas-keyboard-response","358","566666","0.0-11.0-1.173","115","2022-3-31","14:50:11","0","22","[""White""]","No","Female","862982","","","","","","","","217","57","140","25","33","",""
"1770","2","rating","canvas-keyboard-response","359","568447","0.0-11.0-0.174","115","2022-3-31","14:50:11","0","22","[""White""]","No","Female","862982","","","","","","","","19","30","140","10","33","0",""
"null","null","clear_screen","canvas-keyboard-response","360","568708","0.0-11.0-1.174","115","2022-3-31","14:50:11","0","22","[""White""]","No","Female","862982","","","","","","","","19","30","140","10","33","",""
"2782","9","rating","canvas-keyboard-response","361","571503","0.0-11.0-0.175","115","2022-3-31","14:50:11","0","22","[""White""]","No","Female","862982","","","","","","","","290","140","140","33","40","0",""
"null","null","clear_screen","canvas-keyboard-response","362","571764","0.0-11.0-1.175","115","2022-3-31","14:50:11","0","22","[""White""]","No","Female","862982","","","","","","","","290","140","140","33","40","",""
"1822","5","rating","canvas-keyboard-response","363","573598","0.0-11.0-0.176","115","2022-3-31","14:50:11","0","22","[""White""]","No","Female","862982","","","","","","","","133","57","30","17","25","1",""
"null","null","clear_screen","canvas-keyboard-response","364","573858","0.0-11.0-1.176","115","2022-3-31","14:50:11","0","22","[""White""]","No","Female","862982","","","","","","","","133","57","30","17","25","",""
"1595","8","rating","canvas-keyboard-response","365","575463","0.0-11.0-0.177","115","2022-3-31","14:50:11","0","22","[""White""]","No","Female","862982","","","","","","","","274","85","140","33","33","1",""
"null","null","clear_screen","canvas-keyboard-response","366","575724","0.0-11.0-1.177","115","2022-3-31","14:50:11","0","22","[""White""]","No","Female","862982","","","","","","","","274","85","140","33","33","",""
"2031","5","rating","canvas-keyboard-response","367","577767","0.0-11.0-0.178","115","2022-3-31","14:50:11","0","22","[""White""]","No","Female","862982","","","","","","","","146","57","113","17","40","0",""
"null","null","clear_screen","canvas-keyboard-response","368","578028","0.0-11.0-1.178","115","2022-3-31","14:50:11","0","22","[""White""]","No","Female","862982","","","","","","","","146","57","113","17","40","",""
"3824","8","rating","canvas-keyboard-response","369","581863","0.0-11.0-0.179","115","2022-3-31","14:50:11","0","22","[""White""]","No","Female","862982","","","","","","","","214","57","57","25","33","1",""
"null","null","clear_screen","canvas-keyboard-response","370","582122","0.0-11.0-1.179","115","2022-3-31","14:50:11","0","22","[""White""]","No","Female","862982","","","","","","","","214","57","57","25","33","",""
"3205","1","rating","canvas-keyboard-response","371","585343","0.0-11.0-0.180","115","2022-3-31","14:50:11","0","22","[""White""]","No","Female","862982","","","","","","","","3","30","113","10","10","1",""
"null","null","clear_screen","canvas-keyboard-response","372","585604","0.0-11.0-1.180","115","2022-3-31","14:50:11","0","22","[""White""]","No","Female","862982","","","","","","","","3","30","113","10","10","",""
"2705","4","rating","canvas-keyboard-response","373","588320","0.0-11.0-0.181","115","2022-3-31","14:50:11","0","22","[""White""]","No","Female","862982","","","","","","","","167","113","57","17","25","0",""
"null","null","clear_screen","canvas-keyboard-response","374","588583","0.0-11.0-1.181","115","2022-3-31","14:50:11","0","22","[""White""]","No","Female","862982","","","","","","","","167","113","57","17","25","",""
"1986","1","rating","canvas-keyboard-response","375","590585","0.0-11.0-0.182","115","2022-3-31","14:50:11","0","22","[""White""]","No","Female","862982","","","","","","","","124","30","140","17","33","0",""
"null","null","clear_screen","canvas-keyboard-response","376","590847","0.0-11.0-1.182","115","2022-3-31","14:50:11","0","22","[""White""]","No","Female","862982","","","","","","","","124","30","140","17","33","",""
"2027","7","rating","canvas-keyboard-response","377","592888","0.0-11.0-0.183","115","2022-3-31","14:50:11","0","22","[""White""]","No","Female","862982","","","","","","","","58","85","113","10","25","0",""
"null","null","clear_screen","canvas-keyboard-response","378","593148","0.0-11.0-1.183","115","2022-3-31","14:50:11","0","22","[""White""]","No","Female","862982","","","","","","","","58","85","113","10","25","",""
"2417","6","rating","canvas-keyboard-response","379","595577","0.0-11.0-0.184","115","2022-3-31","14:50:11","0","22","[""White""]","No","Female","862982","","","","","","","","182","140","57","17","25","1",""
"null","null","clear_screen","canvas-keyboard-response","380","595840","0.0-11.0-1.184","115","2022-3-31","14:50:11","0","22","[""White""]","No","Female","862982","","","","","","","","182","140","57","17","25","",""
"1450","4","rating","canvas-keyboard-response","381","597304","0.0-11.0-0.185","115","2022-3-31","14:50:11","0","22","[""White""]","No","Female","862982","","","","","","","","242","113","57","25","40","0",""
"null","null","clear_screen","canvas-keyboard-response","382","597565","0.0-11.0-1.185","115","2022-3-31","14:50:11","0","22","[""White""]","No","Female","862982","","","","","","","","242","113","57","25","40","",""
"1606","1","rating","canvas-keyboard-response","383","599184","0.0-11.0-0.186","115","2022-3-31","14:50:11","0","22","[""White""]","No","Female","862982","","","","","","","","14","30","140","10","25","0",""
"null","null","clear_screen","canvas-keyboard-response","384","599446","0.0-11.0-1.186","115","2022-3-31","14:50:11","0","22","[""White""]","No","Female","862982","","","","","","","","14","30","140","10","25","",""
"2293","7","rating","canvas-keyboard-response","385","601751","0.0-11.0-0.187","115","2022-3-31","14:50:11","0","22","[""White""]","No","Female","862982","","","","","","","","157","85","85","17","33","0",""
"null","null","clear_screen","canvas-keyboard-response","386","602009","0.0-11.0-1.187","115","2022-3-31","14:50:11","0","22","[""White""]","No","Female","862982","","","","","","","","157","85","85","17","33","",""
"1401","1","rating","canvas-keyboard-response","387","603423","0.0-11.0-0.188","115","2022-3-31","14:50:11","0","22","[""White""]","No","Female","862982","","","","","","","","9","30","140","10","17","1",""
"null","null","clear_screen","canvas-keyboard-response","388","603687","0.0-11.0-1.188","115","2022-3-31","14:50:11","0","22","[""White""]","No","Female","862982","","","","","","","","9","30","140","10","17","",""
"3061","5","rating","canvas-keyboard-response","389","606759","0.0-11.0-0.189","115","2022-3-31","14:50:11","0","22","[""White""]","No","Female","862982","","","","","","","","191","140","30","17","40","0",""
"null","null","clear_screen","canvas-keyboard-response","390","607018","0.0-11.0-1.189","115","2022-3-31","14:50:11","0","22","[""White""]","No","Female","862982","","","","","","","","191","140","30","17","40","",""
"1887","4","rating","canvas-keyboard-response","391","608920","0.0-11.0-0.190","115","2022-3-31","14:50:11","0","22","[""White""]","No","Female","862982","","","","","","","","253","140","85","25","40","0",""
"null","null","clear_screen","canvas-keyboard-response","392","609182","0.0-11.0-1.190","115","2022-3-31","14:50:11","0","22","[""White""]","No","Female","862982","","","","","","","","253","140","85","25","40","",""
"1732","4","rating","canvas-keyboard-response","393","610926","0.0-11.0-0.191","115","2022-3-31","14:50:11","0","22","[""White""]","No","Female","862982","","","","","","","","128","30","113","17","40","0",""
"null","null","clear_screen","canvas-keyboard-response","394","611186","0.0-11.0-1.191","115","2022-3-31","14:50:11","0","22","[""White""]","No","Female","862982","","","","","","","","128","30","113","17","40","",""
"2163","3","rating","canvas-keyboard-response","395","613360","0.0-11.0-0.192","115","2022-3-31","14:50:11","0","22","[""White""]","No","Female","862982","","","","","","","","89","113","113","10","40","1",""
"null","null","clear_screen","canvas-keyboard-response","396","613619","0.0-11.0-1.192","115","2022-3-31","14:50:11","0","22","[""White""]","No","Female","862982","","","","","","","","89","113","113","10","40","",""
"2425","7","rating","canvas-keyboard-response","397","616055","0.0-11.0-0.193","115","2022-3-31","14:50:11","0","22","[""White""]","No","Female","862982","","","","","","","","10","30","30","10","25","0",""
"null","null","clear_screen","canvas-keyboard-response","398","616316","0.0-11.0-1.193","115","2022-3-31","14:50:11","0","22","[""White""]","No","Female","862982","","","","","","","","10","30","30","10","25","",""
"2687","4","rating","canvas-keyboard-response","399","619015","0.0-11.0-0.194","115","2022-3-31","14:50:11","0","22","[""White""]","No","Female","862982","","","","","","","","204","30","140","25","33","1",""
"null","null","clear_screen","canvas-keyboard-response","400","619275","0.0-11.0-1.194","115","2022-3-31","14:50:11","0","22","[""White""]","No","Female","862982","","","","","","","","204","30","140","25","33","",""
"2729","3","rating","canvas-keyboard-response","401","622015","0.0-11.0-0.195","115","2022-3-31","14:50:11","0","22","[""White""]","No","Female","862982","","","","","","","","149","85","140","17","17","0",""
"null","null","clear_screen","canvas-keyboard-response","402","622277","0.0-11.0-1.195","115","2022-3-31","14:50:11","0","22","[""White""]","No","Female","862982","","","","","","","","149","85","140","17","17","",""
"2646","2","rating","canvas-keyboard-response","403","624936","0.0-11.0-0.196","115","2022-3-31","14:50:11","0","22","[""White""]","No","Female","862982","","","","","","","","111","30","57","17","17","1",""
"null","null","clear_screen","canvas-keyboard-response","404","625199","0.0-11.0-1.196","115","2022-3-31","14:50:11","0","22","[""White""]","No","Female","862982","","","","","","","","111","30","57","17","17","",""
"1298","2","rating","canvas-keyboard-response","405","626511","0.0-11.0-0.197","115","2022-3-31","14:50:11","0","22","[""White""]","No","Female","862982","","","","","","","","114","30","140","17","17","0",""
"null","null","clear_screen","canvas-keyboard-response","406","626774","0.0-11.0-1.197","115","2022-3-31","14:50:11","0","22","[""White""]","No","Female","862982","","","","","","","","114","30","140","17","17","",""
"1731","1","rating","canvas-keyboard-response","407","628519","0.0-11.0-0.198","115","2022-3-31","14:50:11","0","22","[""White""]","No","Female","862982","","","","","","","","22","30","85","10","40","0",""
"null","null","clear_screen","canvas-keyboard-response","408","628780","0.0-11.0-1.198","115","2022-3-31","14:50:11","0","22","[""White""]","No","Female","862982","","","","","","","","22","30","85","10","40","",""
"1832","9","rating","canvas-keyboard-response","409","630624","0.0-11.0-0.199","115","2022-3-31","14:50:11","0","22","[""White""]","No","Female","862982","","","","","","","","223","85","113","25","25","1",""
"null","null","clear_screen","canvas-keyboard-response","410","630884","0.0-11.0-1.199","115","2022-3-31","14:50:11","0","22","[""White""]","No","Female","862982","","","","","","","","223","85","113","25","25","",""
"1969","9","rating","canvas-keyboard-response","411","632863","0.0-11.0-0.200","115","2022-3-31","14:50:11","0","22","[""White""]","No","Female","862982","","","","","","","","200","30","30","25","33","1",""
"null","null","clear_screen","canvas-keyboard-response","412","633126","0.0-11.0-1.200","115","2022-3-31","14:50:11","0","22","[""White""]","No","Female","862982","","","","","","","","200","30","30","25","33","",""
"2173","8","rating","canvas-keyboard-response","413","635311","0.0-11.0-0.201","115","2022-3-31","14:50:11","0","22","[""White""]","No","Female","862982","","","","","","","","97","140","57","10","25","1",""
"null","null","clear_screen","canvas-keyboard-response","414","635572","0.0-11.0-1.201","115","2022-3-31","14:50:11","0","22","[""White""]","No","Female","862982","","","","","","","","97","140","57","10","25","",""
"1893","4","rating","canvas-keyboard-response","415","637479","0.0-11.0-0.202","115","2022-3-31","14:50:11","0","22","[""White""]","No","Female","862982","","","","","","","","259","30","140","33","33","1",""
"null","null","clear_screen","canvas-keyboard-response","416","637738","0.0-11.0-1.202","115","2022-3-31","14:50:11","0","22","[""White""]","No","Female","862982","","","","","","","","259","30","140","33","33","",""
"1810","8","rating","canvas-keyboard-response","417","639559","0.0-11.0-0.203","115","2022-3-31","14:50:11","0","22","[""White""]","No","Female","862982","","","","","","","","300","113","140","40","40","1",""
"null","null","clear_screen","canvas-keyboard-response","418","639822","0.0-11.0-1.203","115","2022-3-31","14:50:11","0","22","[""White""]","No","Female","862982","","","","","","","","300","113","140","40","40","",""
"2046","7","rating","canvas-keyboard-response","419","641879","0.0-11.0-0.204","115","2022-3-31","14:50:11","0","22","[""White""]","No","Female","862982","","","","","","","","144","57","57","17","40","0",""
"null","null","clear_screen","canvas-keyboard-response","420","642138","0.0-11.0-1.204","115","2022-3-31","14:50:11","0","22","[""White""]","No","Female","862982","","","","","","","","144","57","57","17","40","",""
"1656","8","rating","canvas-keyboard-response","421","643807","0.0-11.0-0.205","115","2022-3-31","14:50:11","0","22","[""White""]","No","Female","862982","","","","","","","","224","85","140","25","25","1",""
"null","null","clear_screen","canvas-keyboard-response","422","644067","0.0-11.0-1.205","115","2022-3-31","14:50:11","0","22","[""White""]","No","Female","862982","","","","","","","","224","85","140","25","25","",""
"1506","5","rating","canvas-keyboard-response","423","645582","0.0-11.0-0.206","115","2022-3-31","14:50:11","0","22","[""White""]","No","Female","862982","","","","","","","","267","57","140","33","33","0",""
"null","null","clear_screen","canvas-keyboard-response","424","645846","0.0-11.0-1.206","115","2022-3-31","14:50:11","0","22","[""White""]","No","Female","862982","","","","","","","","267","57","140","33","33","",""
"1877","4","rating","canvas-keyboard-response","425","647735","0.0-11.0-0.207","115","2022-3-31","14:50:11","0","22","[""White""]","No","Female","862982","","","","","","","","40","57","85","10","33","0",""
"null","null","clear_screen","canvas-keyboard-response","426","647998","0.0-11.0-1.207","115","2022-3-31","14:50:11","0","22","[""White""]","No","Female","862982","","","","","","","","40","57","85","10","33","",""
"2221","4","rating","canvas-keyboard-response","427","650231","0.0-11.0-0.208","115","2022-3-31","14:50:11","0","22","[""White""]","No","Female","862982","","","","","","","","248","140","85","25","33","1",""
"null","null","clear_screen","canvas-keyboard-response","428","650495","0.0-11.0-1.208","115","2022-3-31","14:50:11","0","22","[""White""]","No","Female","862982","","","","","","","","248","140","85","25","33","",""
"1497","1","rating","canvas-keyboard-response","429","652007","0.0-11.0-0.209","115","2022-3-31","14:50:11","0","22","[""White""]","No","Female","862982","","","","","","","","101","140","30","10","33","1",""
"null","null","clear_screen","canvas-keyboard-response","430","652268","0.0-11.0-1.209","115","2022-3-31","14:50:11","0","22","[""White""]","No","Female","862982","","","","","","","","101","140","30","10","33","",""
"2244","2","rating","canvas-keyboard-response","431","654527","0.0-11.0-0.210","115","2022-3-31","14:50:11","0","22","[""White""]","No","Female","862982","","","","","","","","20","30","30","10","40","1",""
"null","null","clear_screen","canvas-keyboard-response","432","654788","0.0-11.0-1.210","115","2022-3-31","14:50:11","0","22","[""White""]","No","Female","862982","","","","","","","","20","30","30","10","40","",""
"2445","4","rating","canvas-keyboard-response","433","657246","0.0-11.0-0.211","115","2022-3-31","14:50:11","0","22","[""White""]","No","Female","862982","","","","","","","","2","30","85","10","10","0",""
"null","null","clear_screen","canvas-keyboard-response","434","657508","0.0-11.0-1.211","115","2022-3-31","14:50:11","0","22","[""White""]","No","Female","862982","","","","","","","","2","30","85","10","10","",""
"2518","3","rating","canvas-keyboard-response","435","660039","0.0-11.0-0.212","115","2022-3-31","14:50:11","0","22","[""White""]","No","Female","862982","","","","","","","","206","30","57","25","40","0",""
"null","null","clear_screen","canvas-keyboard-response","436","660304","0.0-11.0-1.212","115","2022-3-31","14:50:11","0","22","[""White""]","No","Female","862982","","","","","","","","206","30","57","25","40","",""
"2443","6","rating","canvas-keyboard-response","437","662760","0.0-11.0-0.213","115","2022-3-31","14:50:11","0","22","[""White""]","No","Female","862982","","","","","","","","239","113","113","25","33","0",""
"null","null","clear_screen","canvas-keyboard-response","438","663022","0.0-11.0-1.213","115","2022-3-31","14:50:11","0","22","[""White""]","No","Female","862982","","","","","","","","239","113","113","25","33","",""
"1885","5","rating","canvas-keyboard-response","439","664920","0.0-11.0-0.214","115","2022-3-31","14:50:11","0","22","[""White""]","No","Female","862982","","","","","","","","141","57","113","17","33","0",""
"null","null","clear_screen","canvas-keyboard-response","440","665184","0.0-11.0-1.214","115","2022-3-31","14:50:11","0","22","[""White""]","No","Female","862982","","","","","","","","141","57","113","17","33","",""
"2004","1","rating","canvas-keyboard-response","441","667199","0.0-11.0-0.215","115","2022-3-31","14:50:11","0","22","[""White""]","No","Female","862982","","","","","","","","294","30","140","40","40","0",""
"null","null","clear_screen","canvas-keyboard-response","442","667460","0.0-11.0-1.215","115","2022-3-31","14:50:11","0","22","[""White""]","No","Female","862982","","","","","","","","294","30","140","40","40","",""
"2527","7","rating","canvas-keyboard-response","443","670000","0.0-11.0-0.216","115","2022-3-31","14:50:11","0","22","[""White""]","No","Female","862982","","","","","","","","184","140","113","17","25","0",""
"null","null","clear_screen","canvas-keyboard-response","444","670263","0.0-11.0-1.216","115","2022-3-31","14:50:11","0","22","[""White""]","No","Female","862982","","","","","","","","184","140","113","17","25","",""
"1287","7","rating","canvas-keyboard-response","445","671559","0.0-11.0-0.217","115","2022-3-31","14:50:11","0","22","[""White""]","No","Female","862982","","","","","","","","298","85","113","40","40","1",""
"null","null","clear_screen","canvas-keyboard-response","446","671820","0.0-11.0-1.217","115","2022-3-31","14:50:11","0","22","[""White""]","No","Female","862982","","","","","","","","298","85","113","40","40","",""
"1935","6","rating","canvas-keyboard-response","447","673767","0.0-11.0-0.218","115","2022-3-31","14:50:11","0","22","[""White""]","No","Female","862982","","","","","","","","73","113","85","10","17","0",""
"null","null","clear_screen","canvas-keyboard-response","448","674028","0.0-11.0-1.218","115","2022-3-31","14:50:11","0","22","[""White""]","No","Female","862982","","","","","","","","73","113","85","10","17","",""
"1719","7","rating","canvas-keyboard-response","449","675760","0.0-11.0-0.219","115","2022-3-31","14:50:11","0","22","[""White""]","No","Female","862982","","","","","","","","232","85","85","25","40","0",""
"null","null","clear_screen","canvas-keyboard-response","450","676021","0.0-11.0-1.219","115","2022-3-31","14:50:11","0","22","[""White""]","No","Female","862982","","","","","","","","232","85","85","25","40","",""
"1184","6","rating","canvas-keyboard-response","451","677214","0.0-11.0-0.220","115","2022-3-31","14:50:11","0","22","[""White""]","No","Female","862982","","","","","","","","62","85","85","10","33","1",""
"null","null","clear_screen","canvas-keyboard-response","452","677479","0.0-11.0-1.220","115","2022-3-31","14:50:11","0","22","[""White""]","No","Female","862982","","","","","","","","62","85","85","10","33","",""
"2373","2","rating","canvas-keyboard-response","453","679864","0.0-11.0-0.221","115","2022-3-31","14:50:11","0","22","[""White""]","No","Female","862982","","","","","","","","60","85","30","10","33","0",""
"null","null","clear_screen","canvas-keyboard-response","454","680124","0.0-11.0-1.221","115","2022-3-31","14:50:11","0","22","[""White""]","No","Female","862982","","","","","","","","60","85","30","10","33","",""
"2088","1","rating","canvas-keyboard-response","455","682223","0.0-11.0-0.222","115","2022-3-31","14:50:11","0","22","[""White""]","No","Female","862982","","","","","","","","44","57","57","10","40","1",""
"null","null","clear_screen","canvas-keyboard-response","456","682482","0.0-11.0-1.222","115","2022-3-31","14:50:11","0","22","[""White""]","No","Female","862982","","","","","","","","44","57","57","10","40","",""
"2161","3","rating","canvas-keyboard-response","457","684655","0.0-11.0-0.223","115","2022-3-31","14:50:11","0","22","[""White""]","No","Female","862982","","","","","","","","54","85","140","10","17","0",""
"null","null","clear_screen","canvas-keyboard-response","458","684917","0.0-11.0-1.223","115","2022-3-31","14:50:11","0","22","[""White""]","No","Female","862982","","","","","","","","54","85","140","10","17","",""
"1361","2","rating","canvas-keyboard-response","459","686287","0.0-11.0-0.224","115","2022-3-31","14:50:11","0","22","[""White""]","No","Female","862982","","","","","","","","213","57","30","25","33","1",""
"null","null","clear_screen","canvas-keyboard-response","460","686546","0.0-11.0-1.224","115","2022-3-31","14:50:11","0","22","[""White""]","No","Female","862982","","","","","","","","213","57","30","25","33","",""
"1306","3","rating","canvas-keyboard-response","461","687863","0.0-11.0-0.225","115","2022-3-31","14:50:11","0","22","[""White""]","No","Female","862982","","","","","","","","254","140","113","25","40","1",""
"null","null","clear_screen","canvas-keyboard-response","462","688127","0.0-11.0-1.225","115","2022-3-31","14:50:11","0","22","[""White""]","No","Female","862982","","","","","","","","254","140","113","25","40","",""
"1261","3","rating","canvas-keyboard-response","463","689399","0.0-11.0-0.226","115","2022-3-31","14:50:11","0","22","[""White""]","No","Female","862982","","","","","","","","250","140","140","25","33","1",""
"null","null","clear_screen","canvas-keyboard-response","464","689659","0.0-11.0-1.226","115","2022-3-31","14:50:11","0","22","[""White""]","No","Female","862982","","","","","","","","250","140","140","25","33","",""
"3760","5","rating","canvas-keyboard-response","465","693431","0.0-11.0-0.227","115","2022-3-31","14:50:11","0","22","[""White""]","No","Female","862982","","","","","","","","221","57","113","25","40","1",""
