"rt","response","trialType","trial_type","trial_index","time_elapsed","internal_node_id","sub_n","date","time","leftRight","age","race","ethnicity","gender","exp_duration","success","timeout","failed_images","failed_audio","failed_video","stimulus","view_history","trialID","radius_a","radius_b","angle_a","angle_b","lrCond","question_order"
"6000","{""response"":""104""}","enter-sub-number","survey-html-form","0","6077","0.0-0.0","104","2022-3-22","14:58:34","1","19","[""Asian"",""White""]","No","Female","1094727","","","","","","","","","","","","","",""
"","","","fullscreen","1","8472","0.0-1.0","104","2022-3-22","14:58:34","1","19","[""Asian"",""White""]","No","Female","1094727","true","","","","","","","","","","","","",""
"","","","preload","2","8500","0.0-2.0","104","2022-3-22","14:58:34","1","19","[""Asian"",""White""]","No","Female","1094727","true","false","[]","[]","[]","","","","","","","","",""
"15604","0","","html-button-response","3","24105","0.0-3.0","104","2022-3-22","14:58:34","1","19","[""Asian"",""White""]","No","Female","1094727","","","","","","<div style= ""font-size:25px;"" <p> <strong> Welcome to the experiment! </strong><br> <p style=""color:#8B0000; font-size:25px;""><strong> Please do NOT exit full screen until you are done with the experiment. </strong> </p><p style=""font-size:25px;color:#8B0000;""> <strong> The experiment will be canceled and your data will be lost <br> if you try to go back or refresh the page at any point during the experiment.</strong> </p><br><p> <strong> Thanks in advance for your contribution to our research! </strong></p>","","","","","","","",""
"30263","","","instructions","4","54369","0.0-4.0","104","2022-3-22","14:58:34","1","19","[""Asian"",""White""]","No","Female","1094727","","","","","","","[{""page_index"":0,""viewing_time"":13727},{""page_index"":1,""viewing_time"":8072},{""page_index"":2,""viewing_time"":8464}]","","","","","","",""
"null","null","presentPop","canvas-keyboard-response","5","70515","0.0-5.0","104","2022-3-22","14:58:34","1","19","[""Asian"",""White""]","No","Female","1094727","","","","","","","","","","","","","",""
"null","null","clear_screen","canvas-keyboard-response","6","71272","0.0-6.0","104","2022-3-22","14:58:34","1","19","[""Asian"",""White""]","No","Female","1094727","","","","","","","","","","","","","",""
"3503","","","instructions","7","74776","0.0-7.0","104","2022-3-22","14:58:34","1","19","[""Asian"",""White""]","No","Female","1094727","","","","","","","[{""page_index"":0,""viewing_time"":3503}]","","","","","","",""
"null","null","presentPop","canvas-keyboard-response","8","90784","0.0-8.0","104","2022-3-22","14:58:34","1","19","[""Asian"",""White""]","No","Female","1094727","","","","","","","","","","","","","",""
"null","null","clear_screen","canvas-keyboard-response","9","91538","0.0-9.0","104","2022-3-22","14:58:34","1","19","[""Asian"",""White""]","No","Female","1094727","","","","","","","","","","","","","",""
"8054","","","instructions","10","99593","0.0-10.0","104","2022-3-22","14:58:34","1","19","[""Asian"",""White""]","No","Female","1094727","","","","","","","[{""page_index"":0,""viewing_time"":3062},{""page_index"":1,""viewing_time"":4992}]","","","","","","",""
"6298","7","rating","canvas-keyboard-response","11","106897","0.0-11.0-0.0","104","2022-3-22","14:58:34","1","19","[""Asian"",""White""]","No","Female","1094727","","","","","","","","168","113","85","17","25","0",""
"null","null","clear_screen","canvas-keyboard-response","12","107152","0.0-11.0-1.0","104","2022-3-22","14:58:34","1","19","[""Asian"",""White""]","No","Female","1094727","","","","","","","","168","113","85","17","25","",""
"18420","8","rating","canvas-keyboard-response","13","125576","0.0-11.0-0.1","104","2022-3-22","14:58:34","1","19","[""Asian"",""White""]","No","Female","1094727","","","","","","","","134","57","57","17","25","0",""
"null","null","clear_screen","canvas-keyboard-response","14","125830","0.0-11.0-1.1","104","2022-3-22","14:58:34","1","19","[""Asian"",""White""]","No","Female","1094727","","","","","","","","134","57","57","17","25","",""
"4965","8","rating","canvas-keyboard-response","15","130801","0.0-11.0-0.2","104","2022-3-22","14:58:34","1","19","[""Asian"",""White""]","No","Female","1094727","","","","","","","","239","113","113","25","33","1",""
"null","null","clear_screen","canvas-keyboard-response","16","131058","0.0-11.0-1.2","104","2022-3-22","14:58:34","1","19","[""Asian"",""White""]","No","Female","1094727","","","","","","","","239","113","113","25","33","",""
"7321","3","rating","canvas-keyboard-response","17","138385","0.0-11.0-0.3","104","2022-3-22","14:58:34","1","19","[""Asian"",""White""]","No","Female","1094727","","","","","","","","46","57","113","10","40","0",""
"null","null","clear_screen","canvas-keyboard-response","18","138641","0.0-11.0-1.3","104","2022-3-22","14:58:34","1","19","[""Asian"",""White""]","No","Female","1094727","","","","","","","","46","57","113","10","40","",""
"5034","3","rating","canvas-keyboard-response","19","143680","0.0-11.0-0.4","104","2022-3-22","14:58:34","1","19","[""Asian"",""White""]","No","Female","1094727","","","","","","","","282","113","57","33","40","1",""
"null","null","clear_screen","canvas-keyboard-response","20","143935","0.0-11.0-1.4","104","2022-3-22","14:58:34","1","19","[""Asian"",""White""]","No","Female","1094727","","","","","","","","282","113","57","33","40","",""
"8132","5","rating","canvas-keyboard-response","21","152073","0.0-11.0-0.5","104","2022-3-22","14:58:34","1","19","[""Asian"",""White""]","No","Female","1094727","","","","","","","","26","57","113","10","10","0",""
"null","null","clear_screen","canvas-keyboard-response","22","152327","0.0-11.0-1.5","104","2022-3-22","14:58:34","1","19","[""Asian"",""White""]","No","Female","1094727","","","","","","","","26","57","113","10","10","",""
"3843","5","rating","canvas-keyboard-response","23","156177","0.0-11.0-0.6","104","2022-3-22","14:58:34","1","19","[""Asian"",""White""]","No","Female","1094727","","","","","","","","25","57","85","10","10","1",""
"null","null","clear_screen","canvas-keyboard-response","24","156432","0.0-11.0-1.6","104","2022-3-22","14:58:34","1","19","[""Asian"",""White""]","No","Female","1094727","","","","","","","","25","57","85","10","10","",""
"5139","6","rating","canvas-keyboard-response","25","161577","0.0-11.0-0.7","104","2022-3-22","14:58:34","1","19","[""Asian"",""White""]","No","Female","1094727","","","","","","","","110","140","140","10","40","1",""
"null","null","clear_screen","canvas-keyboard-response","26","161831","0.0-11.0-1.7","104","2022-3-22","14:58:34","1","19","[""Asian"",""White""]","No","Female","1094727","","","","","","","","110","140","140","10","40","",""
"7524","4","rating","canvas-keyboard-response","27","169360","0.0-11.0-0.8","104","2022-3-22","14:58:34","1","19","[""Asian"",""White""]","No","Female","1094727","","","","","","","","154","85","140","17","25","0",""
"null","null","clear_screen","canvas-keyboard-response","28","169614","0.0-11.0-1.8","104","2022-3-22","14:58:34","1","19","[""Asian"",""White""]","No","Female","1094727","","","","","","","","154","85","140","17","25","",""
"17478","3","rating","canvas-keyboard-response","29","187097","0.0-11.0-0.9","104","2022-3-22","14:58:34","1","19","[""Asian"",""White""]","No","Female","1094727","","","","","","","","64","85","140","10","33","0",""
"null","null","clear_screen","canvas-keyboard-response","30","187352","0.0-11.0-1.9","104","2022-3-22","14:58:34","1","19","[""Asian"",""White""]","No","Female","1094727","","","","","","","","64","85","140","10","33","",""
"2924","4","rating","canvas-keyboard-response","31","190281","0.0-11.0-0.10","104","2022-3-22","14:58:34","1","19","[""Asian"",""White""]","No","Female","1094727","","","","","","","","149","85","140","17","17","1",""
"null","null","clear_screen","canvas-keyboard-response","32","190536","0.0-11.0-1.10","104","2022-3-22","14:58:34","1","19","[""Asian"",""White""]","No","Female","1094727","","","","","","","","149","85","140","17","17","",""
"3363","2","rating","canvas-keyboard-response","33","193905","0.0-11.0-0.11","104","2022-3-22","14:58:34","1","19","[""Asian"",""White""]","No","Female","1094727","","","","","","","","187","140","57","17","33","1",""
"null","null","clear_screen","canvas-keyboard-response","34","194160","0.0-11.0-1.11","104","2022-3-22","14:58:34","1","19","[""Asian"",""White""]","No","Female","1094727","","","","","","","","187","140","57","17","33","",""
"3652","2","rating","canvas-keyboard-response","35","197817","0.0-11.0-0.12","104","2022-3-22","14:58:34","1","19","[""Asian"",""White""]","No","Female","1094727","","","","","","","","253","140","85","25","40","1",""
"null","null","clear_screen","canvas-keyboard-response","36","198071","0.0-11.0-1.12","104","2022-3-22","14:58:34","1","19","[""Asian"",""White""]","No","Female","1094727","","","","","","","","253","140","85","25","40","",""
"4756","3","rating","canvas-keyboard-response","37","202834","0.0-11.0-0.13","104","2022-3-22","14:58:34","1","19","[""Asian"",""White""]","No","Female","1094727","","","","","","","","21","30","57","10","40","1",""
"170"," ","clear_screen","canvas-keyboard-response","38","203009","0.0-11.0-1.13","104","2022-3-22","14:58:34","1","19","[""Asian"",""White""]","No","Female","1094727","","","","","","","","21","30","57","10","40","",""
"3107","2","rating","canvas-keyboard-response","39","206120","0.0-11.0-0.14","104","2022-3-22","14:58:34","1","19","[""Asian"",""White""]","No","Female","1094727","","","","","","","","16","30","57","10","33","1",""
"null","null","clear_screen","canvas-keyboard-response","40","206374","0.0-11.0-1.14","104","2022-3-22","14:58:34","1","19","[""Asian"",""White""]","No","Female","1094727","","","","","","","","16","30","57","10","33","",""
"3299","3","rating","canvas-keyboard-response","41","209681","0.0-11.0-0.15","104","2022-3-22","14:58:34","1","19","[""Asian"",""White""]","No","Female","1094727","","","","","","","","87","113","57","10","40","0",""
"null","null","clear_screen","canvas-keyboard-response","42","209937","0.0-11.0-1.15","104","2022-3-22","14:58:34","1","19","[""Asian"",""White""]","No","Female","1094727","","","","","","","","87","113","57","10","40","",""
"7186","1","rating","canvas-keyboard-response","43","217129","0.0-11.0-0.16","104","2022-3-22","14:58:34","1","19","[""Asian"",""White""]","No","Female","1094727","","","","","","","","14","30","140","10","25","0",""
"null","null","clear_screen","canvas-keyboard-response","44","217384","0.0-11.0-1.16","104","2022-3-22","14:58:34","1","19","[""Asian"",""White""]","No","Female","1094727","","","","","","","","14","30","140","10","25","",""
"6012","8","rating","canvas-keyboard-response","45","223400","0.0-11.0-0.17","104","2022-3-22","14:58:34","1","19","[""Asian"",""White""]","No","Female","1094727","","","","","","","","29","57","57","10","17","0",""
"null","null","clear_screen","canvas-keyboard-response","46","223654","0.0-11.0-1.17","104","2022-3-22","14:58:34","1","19","[""Asian"",""White""]","No","Female","1094727","","","","","","","","29","57","57","10","17","",""
"5268","4","rating","canvas-keyboard-response","47","228929","0.0-11.0-0.18","104","2022-3-22","14:58:34","1","19","[""Asian"",""White""]","No","Female","1094727","","","","","","","","204","30","140","25","33","1",""
"null","null","clear_screen","canvas-keyboard-response","48","229183","0.0-11.0-1.18","104","2022-3-22","14:58:34","1","19","[""Asian"",""White""]","No","Female","1094727","","","","","","","","204","30","140","25","33","",""
"7013","7","rating","canvas-keyboard-response","49","236201","0.0-11.0-0.19","104","2022-3-22","14:58:34","1","19","[""Asian"",""White""]","No","Female","1094727","","","","","","","","300","113","140","40","40","1",""
"null","null","clear_screen","canvas-keyboard-response","50","236455","0.0-11.0-1.19","104","2022-3-22","14:58:34","1","19","[""Asian"",""White""]","No","Female","1094727","","","","","","","","300","113","140","40","40","",""
"4334","6","rating","canvas-keyboard-response","51","240793","0.0-11.0-0.20","104","2022-3-22","14:58:34","1","19","[""Asian"",""White""]","No","Female","1094727","","","","","","","","165","113","140","17","17","0",""
"null","null","clear_screen","canvas-keyboard-response","52","241048","0.0-11.0-1.20","104","2022-3-22","14:58:34","1","19","[""Asian"",""White""]","No","Female","1094727","","","","","","","","165","113","140","17","17","",""
"4203","3","rating","canvas-keyboard-response","53","245256","0.0-11.0-0.21","104","2022-3-22","14:58:34","1","19","[""Asian"",""White""]","No","Female","1094727","","","","","","","","127","30","85","17","40","1",""
"null","null","clear_screen","canvas-keyboard-response","54","245510","0.0-11.0-1.21","104","2022-3-22","14:58:34","1","19","[""Asian"",""White""]","No","Female","1094727","","","","","","","","127","30","85","17","40","",""
"3772","7","rating","canvas-keyboard-response","55","249289","0.0-11.0-0.22","104","2022-3-22","14:58:34","1","19","[""Asian"",""White""]","No","Female","1094727","","","","","","","","215","57","85","25","33","1",""
"null","null","clear_screen","canvas-keyboard-response","56","249544","0.0-11.0-1.22","104","2022-3-22","14:58:34","1","19","[""Asian"",""White""]","No","Female","1094727","","","","","","","","215","57","85","25","33","",""
"3178","3","rating","canvas-keyboard-response","57","252729","0.0-11.0-0.23","104","2022-3-22","14:58:34","1","19","[""Asian"",""White""]","No","Female","1094727","","","","","","","","155","85","30","17","33","1",""
"null","null","clear_screen","canvas-keyboard-response","58","252983","0.0-11.0-1.23","104","2022-3-22","14:58:34","1","19","[""Asian"",""White""]","No","Female","1094727","","","","","","","","155","85","30","17","33","",""
"4908","4","rating","canvas-keyboard-response","59","257897","0.0-11.0-0.24","104","2022-3-22","14:58:34","1","19","[""Asian"",""White""]","No","Female","1094727","","","","","","","","145","57","85","17","40","1",""
"null","null","clear_screen","canvas-keyboard-response","60","258153","0.0-11.0-1.24","104","2022-3-22","14:58:34","1","19","[""Asian"",""White""]","No","Female","1094727","","","","","","","","145","57","85","17","40","",""
"3041","3","rating","canvas-keyboard-response","61","261201","0.0-11.0-0.25","104","2022-3-22","14:58:34","1","19","[""Asian"",""White""]","No","Female","1094727","","","","","","","","146","57","113","17","40","1",""
"null","null","clear_screen","canvas-keyboard-response","62","261454","0.0-11.0-1.25","104","2022-3-22","14:58:34","1","19","[""Asian"",""White""]","No","Female","1094727","","","","","","","","146","57","113","17","40","",""
"4262","6","rating","canvas-keyboard-response","63","265722","0.0-11.0-0.26","104","2022-3-22","14:58:34","1","19","[""Asian"",""White""]","No","Female","1094727","","","","","","","","228","85","113","25","33","1",""
"null","null","clear_screen","canvas-keyboard-response","64","265976","0.0-11.0-1.26","104","2022-3-22","14:58:34","1","19","[""Asian"",""White""]","No","Female","1094727","","","","","","","","228","85","113","25","33","",""
"3875","8","rating","canvas-keyboard-response","65","269856","0.0-11.0-0.27","104","2022-3-22","14:58:34","1","19","[""Asian"",""White""]","No","Female","1094727","","","","","","","","269","57","57","33","40","1",""
"null","null","clear_screen","canvas-keyboard-response","66","270110","0.0-11.0-1.27","104","2022-3-22","14:58:34","1","19","[""Asian"",""White""]","No","Female","1094727","","","","","","","","269","57","57","33","40","",""
"3877","2","rating","canvas-keyboard-response","67","273993","0.0-11.0-0.28","104","2022-3-22","14:58:34","1","19","[""Asian"",""White""]","No","Female","1094727","","","","","","","","251","140","30","25","40","1",""
"null","null","clear_screen","canvas-keyboard-response","68","274247","0.0-11.0-1.28","104","2022-3-22","14:58:34","1","19","[""Asian"",""White""]","No","Female","1094727","","","","","","","","251","140","30","25","40","",""
"5018","3","rating","canvas-keyboard-response","69","279273","0.0-11.0-0.29","104","2022-3-22","14:58:34","1","19","[""Asian"",""White""]","No","Female","1094727","","","","","","","","4","30","140","10","10","0",""
"null","null","clear_screen","canvas-keyboard-response","70","279528","0.0-11.0-1.29","104","2022-3-22","14:58:34","1","19","[""Asian"",""White""]","No","Female","1094727","","","","","","","","4","30","140","10","10","",""
"1869","3","rating","canvas-keyboard-response","71","281400","0.0-11.0-0.30","104","2022-3-22","14:58:34","1","19","[""Asian"",""White""]","No","Female","1094727","","","","","","","","7","30","85","10","17","1",""
"null","null","clear_screen","canvas-keyboard-response","72","281655","0.0-11.0-1.30","104","2022-3-22","14:58:34","1","19","[""Asian"",""White""]","No","Female","1094727","","","","","","","","7","30","85","10","17","",""
"4470","5","rating","canvas-keyboard-response","73","286128","0.0-11.0-0.31","104","2022-3-22","14:58:34","1","19","[""Asian"",""White""]","No","Female","1094727","","","","","","","","59","85","140","10","25","0",""
"null","null","clear_screen","canvas-keyboard-response","74","286382","0.0-11.0-1.31","104","2022-3-22","14:58:34","1","19","[""Asian"",""White""]","No","Female","1094727","","","","","","","","59","85","140","10","25","",""
"2174","2","rating","canvas-keyboard-response","75","288560","0.0-11.0-0.32","104","2022-3-22","14:58:34","1","19","[""Asian"",""White""]","No","Female","1094727","","","","","","","","81","113","30","10","33","1",""
"null","null","clear_screen","canvas-keyboard-response","76","288815","0.0-11.0-1.32","104","2022-3-22","14:58:34","1","19","[""Asian"",""White""]","No","Female","1094727","","","","","","","","81","113","30","10","33","",""
"6365","3","rating","canvas-keyboard-response","77","295185","0.0-11.0-0.33","104","2022-3-22","14:58:34","1","19","[""Asian"",""White""]","No","Female","1094727","","","","","","","","252","140","57","25","40","0",""
"null","null","clear_screen","canvas-keyboard-response","78","295438","0.0-11.0-1.33","104","2022-3-22","14:58:34","1","19","[""Asian"",""White""]","No","Female","1094727","","","","","","","","252","140","57","25","40","",""
"2941","3","rating","canvas-keyboard-response","79","298385","0.0-11.0-0.34","104","2022-3-22","14:58:34","1","19","[""Asian"",""White""]","No","Female","1094727","","","","","","","","98","140","85","10","25","1",""
"null","null","clear_screen","canvas-keyboard-response","80","298639","0.0-11.0-1.34","104","2022-3-22","14:58:34","1","19","[""Asian"",""White""]","No","Female","1094727","","","","","","","","98","140","85","10","25","",""
"4277","2","rating","canvas-keyboard-response","81","302920","0.0-11.0-0.35","104","2022-3-22","14:58:34","1","19","[""Asian"",""White""]","No","Female","1094727","","","","","","","","65","85","30","10","40","0",""
"null","null","clear_screen","canvas-keyboard-response","82","303174","0.0-11.0-1.35","104","2022-3-22","14:58:34","1","19","[""Asian"",""White""]","No","Female","1094727","","","","","","","","65","85","30","10","40","",""
"3326","5","rating","canvas-keyboard-response","83","306504","0.0-11.0-0.36","104","2022-3-22","14:58:34","1","19","[""Asian"",""White""]","No","Female","1094727","","","","","","","","27","57","140","10","10","1",""
"null","null","clear_screen","canvas-keyboard-response","84","306759","0.0-11.0-1.36","104","2022-3-22","14:58:34","1","19","[""Asian"",""White""]","No","Female","1094727","","","","","","","","27","57","140","10","10","",""
"2139","3","rating","canvas-keyboard-response","85","308904","0.0-11.0-0.37","104","2022-3-22","14:58:34","1","19","[""Asian"",""White""]","No","Female","1094727","","","","","","","","45","57","85","10","40","0",""
"null","null","clear_screen","canvas-keyboard-response","86","309160","0.0-11.0-1.37","104","2022-3-22","14:58:34","1","19","[""Asian"",""White""]","No","Female","1094727","","","","","","","","45","57","85","10","40","",""
"1652","3","rating","canvas-keyboard-response","87","310816","0.0-11.0-0.38","104","2022-3-22","14:58:34","1","19","[""Asian"",""White""]","No","Female","1094727","","","","","","","","172","113","57","17","33","0",""
"null","null","clear_screen","canvas-keyboard-response","88","311072","0.0-11.0-1.38","104","2022-3-22","14:58:34","1","19","[""Asian"",""White""]","No","Female","1094727","","","","","","","","172","113","57","17","33","",""
"3226","6","rating","canvas-keyboard-response","89","314305","0.0-11.0-0.39","104","2022-3-22","14:58:34","1","19","[""Asian"",""White""]","No","Female","1094727","","","","","","","","243","113","85","25","40","0",""
"null","null","clear_screen","canvas-keyboard-response","90","314560","0.0-11.0-1.39","104","2022-3-22","14:58:34","1","19","[""Asian"",""White""]","No","Female","1094727","","","","","","","","243","113","85","25","40","",""
"5226","7","rating","canvas-keyboard-response","91","319792","0.0-11.0-0.40","104","2022-3-22","14:58:34","1","19","[""Asian"",""White""]","No","Female","1094727","","","","","","","","232","85","85","25","40","1",""
"null","null","clear_screen","canvas-keyboard-response","92","320048","0.0-11.0-1.40","104","2022-3-22","14:58:34","1","19","[""Asian"",""White""]","No","Female","1094727","","","","","","","","232","85","85","25","40","",""
"2148","8","rating","canvas-keyboard-response","93","322200","0.0-11.0-0.41","104","2022-3-22","14:58:34","1","19","[""Asian"",""White""]","No","Female","1094727","","","","","","","","95","140","140","10","17","0",""
"null","null","clear_screen","canvas-keyboard-response","94","322455","0.0-11.0-1.41","104","2022-3-22","14:58:34","1","19","[""Asian"",""White""]","No","Female","1094727","","","","","","","","95","140","140","10","17","",""
"2581","4","rating","canvas-keyboard-response","95","325041","0.0-11.0-0.42","104","2022-3-22","14:58:34","1","19","[""Asian"",""White""]","No","Female","1094727","","","","","","","","62","85","85","10","33","0",""
"null","null","clear_screen","canvas-keyboard-response","96","325295","0.0-11.0-1.42","104","2022-3-22","14:58:34","1","19","[""Asian"",""White""]","No","Female","1094727","","","","","","","","62","85","85","10","33","",""
"3373","2","rating","canvas-keyboard-response","97","328673","0.0-11.0-0.43","104","2022-3-22","14:58:34","1","19","[""Asian"",""White""]","No","Female","1094727","","","","","","","","72","113","57","10","17","1",""
"null","null","clear_screen","canvas-keyboard-response","98","328927","0.0-11.0-1.43","104","2022-3-22","14:58:34","1","19","[""Asian"",""White""]","No","Female","1094727","","","","","","","","72","113","57","10","17","",""
"3573","3","rating","canvas-keyboard-response","99","332504","0.0-11.0-0.44","104","2022-3-22","14:58:34","1","19","[""Asian"",""White""]","No","Female","1094727","","","","","","","","222","57","140","25","40","0",""
"null","null","clear_screen","canvas-keyboard-response","100","332759","0.0-11.0-1.44","104","2022-3-22","14:58:34","1","19","[""Asian"",""White""]","No","Female","1094727","","","","","","","","222","57","140","25","40","",""
"2614","7","rating","canvas-keyboard-response","101","335378","0.0-11.0-0.45","104","2022-3-22","14:58:34","1","19","[""Asian"",""White""]","No","Female","1094727","","","","","","","","227","85","85","25","33","1",""
"null","null","clear_screen","canvas-keyboard-response","102","335634","0.0-11.0-1.45","104","2022-3-22","14:58:34","1","19","[""Asian"",""White""]","No","Female","1094727","","","","","","","","227","85","85","25","33","",""
"4809","7","rating","canvas-keyboard-response","103","340448","0.0-11.0-0.46","104","2022-3-22","14:58:34","1","19","[""Asian"",""White""]","No","Female","1094727","","","","","","","","238","113","85","25","33","0",""
"null","null","clear_screen","canvas-keyboard-response","104","340704","0.0-11.0-1.46","104","2022-3-22","14:58:34","1","19","[""Asian"",""White""]","No","Female","1094727","","","","","","","","238","113","85","25","33","",""
"2434","3","rating","canvas-keyboard-response","105","343145","0.0-11.0-0.47","104","2022-3-22","14:58:34","1","19","[""Asian"",""White""]","No","Female","1094727","","","","","","","","209","30","140","25","40","0",""
"null","null","clear_screen","canvas-keyboard-response","106","343400","0.0-11.0-1.47","104","2022-3-22","14:58:34","1","19","[""Asian"",""White""]","No","Female","1094727","","","","","","","","209","30","140","25","40","",""
"5835","5","rating","canvas-keyboard-response","107","349241","0.0-11.0-0.48","104","2022-3-22","14:58:34","1","19","[""Asian"",""White""]","No","Female","1094727","","","","","","","","179","113","113","17","40","1",""
"null","null","clear_screen","canvas-keyboard-response","108","349495","0.0-11.0-1.48","104","2022-3-22","14:58:34","1","19","[""Asian"",""White""]","No","Female","1094727","","","","","","","","179","113","113","17","40","",""
"2141","3","rating","canvas-keyboard-response","109","351641","0.0-11.0-0.49","104","2022-3-22","14:58:34","1","19","[""Asian"",""White""]","No","Female","1094727","","","","","","","","208","30","113","25","40","1",""
"null","null","clear_screen","canvas-keyboard-response","110","351896","0.0-11.0-1.49","104","2022-3-22","14:58:34","1","19","[""Asian"",""White""]","No","Female","1094727","","","","","","","","208","30","113","25","40","",""
"3299","1","rating","canvas-keyboard-response","111","355201","0.0-11.0-0.50","104","2022-3-22","14:58:34","1","19","[""Asian"",""White""]","No","Female","1094727","","","","","","","","186","140","30","17","33","1",""
"null","null","clear_screen","canvas-keyboard-response","112","355456","0.0-11.0-1.50","104","2022-3-22","14:58:34","1","19","[""Asian"",""White""]","No","Female","1094727","","","","","","","","186","140","30","17","33","",""
"2003","3","rating","canvas-keyboard-response","113","357465","0.0-11.0-0.51","104","2022-3-22","14:58:34","1","19","[""Asian"",""White""]","No","Female","1094727","","","","","","","","194","140","113","17","40","0",""
"null","null","clear_screen","canvas-keyboard-response","114","357719","0.0-11.0-1.51","104","2022-3-22","14:58:34","1","19","[""Asian"",""White""]","No","Female","1094727","","","","","","","","194","140","113","17","40","",""
"3589","4","rating","canvas-keyboard-response","115","361313","0.0-11.0-0.52","104","2022-3-22","14:58:34","1","19","[""Asian"",""White""]","No","Female","1094727","","","","","","","","247","140","57","25","33","1",""
"null","null","clear_screen","canvas-keyboard-response","116","361567","0.0-11.0-1.52","104","2022-3-22","14:58:34","1","19","[""Asian"",""White""]","No","Female","1094727","","","","","","","","247","140","57","25","33","",""
"5237","4","rating","canvas-keyboard-response","117","366808","0.0-11.0-0.53","104","2022-3-22","14:58:34","1","19","[""Asian"",""White""]","No","Female","1094727","","","","","","","","258","30","113","33","33","0",""
"null","null","clear_screen","canvas-keyboard-response","118","367063","0.0-11.0-1.53","104","2022-3-22","14:58:34","1","19","[""Asian"",""White""]","No","Female","1094727","","","","","","","","258","30","113","33","33","",""
"3652","2","rating","canvas-keyboard-response","119","370720","0.0-11.0-0.54","104","2022-3-22","14:58:34","1","19","[""Asian"",""White""]","No","Female","1094727","","","","","","","","40","57","85","10","33","0",""
"null","null","clear_screen","canvas-keyboard-response","120","370976","0.0-11.0-1.54","104","2022-3-22","14:58:34","1","19","[""Asian"",""White""]","No","Female","1094727","","","","","","","","40","57","85","10","33","",""
"3900","5","rating","canvas-keyboard-response","121","374880","0.0-11.0-0.55","104","2022-3-22","14:58:34","1","19","[""Asian"",""White""]","No","Female","1094727","","","","","","","","89","113","113","10","40","1",""
"null","null","clear_screen","canvas-keyboard-response","122","375138","0.0-11.0-1.55","104","2022-3-22","14:58:34","1","19","[""Asian"",""White""]","No","Female","1094727","","","","","","","","89","113","113","10","40","",""
"2987","5","rating","canvas-keyboard-response","123","378129","0.0-11.0-0.56","104","2022-3-22","14:58:34","1","19","[""Asian"",""White""]","No","Female","1094727","","","","","","","","53","85","113","10","17","1",""
"null","null","clear_screen","canvas-keyboard-response","124","378383","0.0-11.0-1.56","104","2022-3-22","14:58:34","1","19","[""Asian"",""White""]","No","Female","1094727","","","","","","","","53","85","113","10","17","",""
"2589","3","rating","canvas-keyboard-response","125","380977","0.0-11.0-0.57","104","2022-3-22","14:58:34","1","19","[""Asian"",""White""]","No","Female","1094727","","","","","","","","44","57","57","10","40","1",""
"null","null","clear_screen","canvas-keyboard-response","126","381231","0.0-11.0-1.57","104","2022-3-22","14:58:34","1","19","[""Asian"",""White""]","No","Female","1094727","","","","","","","","44","57","57","10","40","",""
"4398","8","rating","canvas-keyboard-response","127","385632","0.0-11.0-0.58","104","2022-3-22","14:58:34","1","19","[""Asian"",""White""]","No","Female","1094727","","","","","","","","135","57","85","17","25","0",""
"null","null","clear_screen","canvas-keyboard-response","128","385886","0.0-11.0-1.58","104","2022-3-22","14:58:34","1","19","[""Asian"",""White""]","No","Female","1094727","","","","","","","","135","57","85","17","25","",""
"5566","5","rating","canvas-keyboard-response","129","391457","0.0-11.0-0.59","104","2022-3-22","14:58:34","1","19","[""Asian"",""White""]","No","Female","1094727","","","","","","","","73","113","85","10","17","1",""
"null","null","clear_screen","canvas-keyboard-response","130","391712","0.0-11.0-1.59","104","2022-3-22","14:58:34","1","19","[""Asian"",""White""]","No","Female","1094727","","","","","","","","73","113","85","10","17","",""
"4259","7","rating","canvas-keyboard-response","131","395976","0.0-11.0-0.60","104","2022-3-22","14:58:34","1","19","[""Asian"",""White""]","No","Female","1094727","","","","","","","","94","140","113","10","17","1",""
"null","null","clear_screen","canvas-keyboard-response","132","396230","0.0-11.0-1.60","104","2022-3-22","14:58:34","1","19","[""Asian"",""White""]","No","Female","1094727","","","","","","","","94","140","113","10","17","",""
"1501","7","rating","canvas-keyboard-response","133","397736","0.0-11.0-0.61","104","2022-3-22","14:58:34","1","19","[""Asian"",""White""]","No","Female","1094727","","","","","","","","58","85","113","10","25","0",""
"null","null","clear_screen","canvas-keyboard-response","134","397991","0.0-11.0-1.61","104","2022-3-22","14:58:34","1","19","[""Asian"",""White""]","No","Female","1094727","","","","","","","","58","85","113","10","25","",""
"4283","4","rating","canvas-keyboard-response","135","402280","0.0-11.0-0.62","104","2022-3-22","14:58:34","1","19","[""Asian"",""White""]","No","Female","1094727","","","","","","","","177","113","57","17","40","0",""
"null","null","clear_screen","canvas-keyboard-response","136","402535","0.0-11.0-1.62","104","2022-3-22","14:58:34","1","19","[""Asian"",""White""]","No","Female","1094727","","","","","","","","177","113","57","17","40","",""
"2259","5","rating","canvas-keyboard-response","137","404801","0.0-11.0-0.63","104","2022-3-22","14:58:34","1","19","[""Asian"",""White""]","No","Female","1094727","","","","","","","","299","85","140","40","40","1",""
"null","null","clear_screen","canvas-keyboard-response","138","405056","0.0-11.0-1.63","104","2022-3-22","14:58:34","1","19","[""Asian"",""White""]","No","Female","1094727","","","","","","","","299","85","140","40","40","",""
"2201","2","rating","canvas-keyboard-response","139","407265","0.0-11.0-0.64","104","2022-3-22","14:58:34","1","19","[""Asian"",""White""]","No","Female","1094727","","","","","","","","101","140","30","10","33","1",""
"null","null","clear_screen","canvas-keyboard-response","140","407519","0.0-11.0-1.64","104","2022-3-22","14:58:34","1","19","[""Asian"",""White""]","No","Female","1094727","","","","","","","","101","140","30","10","33","",""
"4156","6","rating","canvas-keyboard-response","141","411681","0.0-11.0-0.65","104","2022-3-22","14:58:34","1","19","[""Asian"",""White""]","No","Female","1094727","","","","","","","","292","30","85","40","40","1",""
"null","null","clear_screen","canvas-keyboard-response","142","411936","0.0-11.0-1.65","104","2022-3-22","14:58:34","1","19","[""Asian"",""White""]","No","Female","1094727","","","","","","","","292","30","85","40","40","",""
"2475","7","rating","canvas-keyboard-response","143","414418","0.0-11.0-0.66","104","2022-3-22","14:58:34","1","19","[""Asian"",""White""]","No","Female","1094727","","","","","","","","74","113","113","10","17","0",""
"null","null","clear_screen","canvas-keyboard-response","144","414672","0.0-11.0-1.66","104","2022-3-22","14:58:34","1","19","[""Asian"",""White""]","No","Female","1094727","","","","","","","","74","113","113","10","17","",""
"1825","6","rating","canvas-keyboard-response","145","416506","0.0-11.0-0.67","104","2022-3-22","14:58:34","1","19","[""Asian"",""White""]","No","Female","1094727","","","","","","","","136","57","113","17","25","1",""
"null","null","clear_screen","canvas-keyboard-response","146","416759","0.0-11.0-1.67","104","2022-3-22","14:58:34","1","19","[""Asian"",""White""]","No","Female","1094727","","","","","","","","136","57","113","17","25","",""
"1795","1","rating","canvas-keyboard-response","147","418561","0.0-11.0-0.68","104","2022-3-22","14:58:34","1","19","[""Asian"",""White""]","No","Female","1094727","","","","","","","","24","30","140","10","40","1",""
"null","null","clear_screen","canvas-keyboard-response","148","418816","0.0-11.0-1.68","104","2022-3-22","14:58:34","1","19","[""Asian"",""White""]","No","Female","1094727","","","","","","","","24","30","140","10","40","",""
"2531","1","rating","canvas-keyboard-response","149","421353","0.0-11.0-0.69","104","2022-3-22","14:58:34","1","19","[""Asian"",""White""]","No","Female","1094727","","","","","","","","76","113","30","10","25","1",""
"null","null","clear_screen","canvas-keyboard-response","150","421607","0.0-11.0-1.69","104","2022-3-22","14:58:34","1","19","[""Asian"",""White""]","No","Female","1094727","","","","","","","","76","113","30","10","25","",""
"3325","2","rating","canvas-keyboard-response","151","424936","0.0-11.0-0.70","104","2022-3-22","14:58:34","1","19","[""Asian"",""White""]","No","Female","1094727","","","","","","","","267","57","140","33","33","0",""
"null","null","clear_screen","canvas-keyboard-response","152","425191","0.0-11.0-1.70","104","2022-3-22","14:58:34","1","19","[""Asian"",""White""]","No","Female","1094727","","","","","","","","267","57","140","33","33","",""
"2197","7","rating","canvas-keyboard-response","153","427393","0.0-11.0-0.71","104","2022-3-22","14:58:34","1","19","[""Asian"",""White""]","No","Female","1094727","","","","","","","","170","113","140","17","25","0",""
"null","null","clear_screen","canvas-keyboard-response","154","427647","0.0-11.0-1.71","104","2022-3-22","14:58:34","1","19","[""Asian"",""White""]","No","Female","1094727","","","","","","","","170","113","140","17","25","",""
"3140","8","rating","canvas-keyboard-response","155","430793","0.0-11.0-0.72","104","2022-3-22","14:58:34","1","19","[""Asian"",""White""]","No","Female","1094727","","","","","","","","48","85","113","10","10","0",""
"null","null","clear_screen","canvas-keyboard-response","156","431048","0.0-11.0-1.72","104","2022-3-22","14:58:34","1","19","[""Asian"",""White""]","No","Female","1094727","","","","","","","","48","85","113","10","10","",""
"4133","2","rating","canvas-keyboard-response","157","435185","0.0-11.0-0.73","104","2022-3-22","14:58:34","1","19","[""Asian"",""White""]","No","Female","1094727","","","","","","","","61","85","57","10","33","1",""
"null","null","clear_screen","canvas-keyboard-response","158","435441","0.0-11.0-1.73","104","2022-3-22","14:58:34","1","19","[""Asian"",""White""]","No","Female","1094727","","","","","","","","61","85","57","10","33","",""
"2235","1","rating","canvas-keyboard-response","159","437680","0.0-11.0-0.74","104","2022-3-22","14:58:34","1","19","[""Asian"",""White""]","No","Female","1094727","","","","","","","","199","30","140","25","25","1",""
"null","null","clear_screen","canvas-keyboard-response","160","437935","0.0-11.0-1.74","104","2022-3-22","14:58:34","1","19","[""Asian"",""White""]","No","Female","1094727","","","","","","","","199","30","140","25","25","",""
"3044","2","rating","canvas-keyboard-response","161","440985","0.0-11.0-0.75","104","2022-3-22","14:58:34","1","19","[""Asian"",""White""]","No","Female","1094727","","","","","","","","97","140","57","10","25","0",""
"null","null","clear_screen","canvas-keyboard-response","162","441240","0.0-11.0-1.75","104","2022-3-22","14:58:34","1","19","[""Asian"",""White""]","No","Female","1094727","","","","","","","","97","140","57","10","25","",""
"3258","4","rating","canvas-keyboard-response","163","444505","0.0-11.0-0.76","104","2022-3-22","14:58:34","1","19","[""Asian"",""White""]","No","Female","1094727","","","","","","","","126","30","57","17","40","1",""
"null","null","clear_screen","canvas-keyboard-response","164","444758","0.0-11.0-1.76","104","2022-3-22","14:58:34","1","19","[""Asian"",""White""]","No","Female","1094727","","","","","","","","126","30","57","17","40","",""
"4822","6","rating","canvas-keyboard-response","165","449584","0.0-11.0-0.77","104","2022-3-22","14:58:34","1","19","[""Asian"",""White""]","No","Female","1094727","","","","","","","","201","30","57","25","33","1",""
"null","null","clear_screen","canvas-keyboard-response","166","449839","0.0-11.0-1.77","104","2022-3-22","14:58:34","1","19","[""Asian"",""White""]","No","Female","1094727","","","","","","","","201","30","57","25","33","",""
"2076","1","rating","canvas-keyboard-response","167","451920","0.0-11.0-0.78","104","2022-3-22","14:58:34","1","19","[""Asian"",""White""]","No","Female","1094727","","","","","","","","19","30","140","10","33","1",""
"null","null","clear_screen","canvas-keyboard-response","168","452175","0.0-11.0-1.78","104","2022-3-22","14:58:34","1","19","[""Asian"",""White""]","No","Female","1094727","","","","","","","","19","30","140","10","33","",""
"3405","2","rating","canvas-keyboard-response","169","455584","0.0-11.0-0.79","104","2022-3-22","14:58:34","1","19","[""Asian"",""White""]","No","Female","1094727","","","","","","","","32","57","140","10","17","0",""
"null","null","clear_screen","canvas-keyboard-response","170","455839","0.0-11.0-1.79","104","2022-3-22","14:58:34","1","19","[""Asian"",""White""]","No","Female","1094727","","","","","","","","32","57","140","10","17","",""
"5220","5","rating","canvas-keyboard-response","171","461064","0.0-11.0-0.80","104","2022-3-22","14:58:34","1","19","[""Asian"",""White""]","No","Female","1094727","","","","","","","","262","30","85","33","40","0",""
"null","null","clear_screen","canvas-keyboard-response","172","461318","0.0-11.0-1.80","104","2022-3-22","14:58:34","1","19","[""Asian"",""White""]","No","Female","1094727","","","","","","","","262","30","85","33","40","",""
"2868","7","rating","canvas-keyboard-response","173","464192","0.0-11.0-0.81","104","2022-3-22","14:58:34","1","19","[""Asian"",""White""]","No","Female","1094727","","","","","","","","265","57","85","33","33","1",""
"null","null","clear_screen","canvas-keyboard-response","174","464447","0.0-11.0-1.81","104","2022-3-22","14:58:34","1","19","[""Asian"",""White""]","No","Female","1094727","","","","","","","","265","57","85","33","33","",""
"3774","4","rating","canvas-keyboard-response","175","468224","0.0-11.0-0.82","104","2022-3-22","14:58:34","1","19","[""Asian"",""White""]","No","Female","1094727","","","","","","","","125","30","30","17","40","1",""
"null","null","clear_screen","canvas-keyboard-response","176","468479","0.0-11.0-1.82","104","2022-3-22","14:58:34","1","19","[""Asian"",""White""]","No","Female","1094727","","","","","","","","125","30","30","17","40","",""
"2084","4","rating","canvas-keyboard-response","177","470569","0.0-11.0-0.83","104","2022-3-22","14:58:34","1","19","[""Asian"",""White""]","No","Female","1094727","","","","","","","","140","57","85","17","33","1",""
"null","null","clear_screen","canvas-keyboard-response","178","470823","0.0-11.0-1.83","104","2022-3-22","14:58:34","1","19","[""Asian"",""White""]","No","Female","1094727","","","","","","","","140","57","85","17","33","",""
"3115","4","rating","canvas-keyboard-response","179","473945","0.0-11.0-0.84","104","2022-3-22","14:58:34","1","19","[""Asian"",""White""]","No","Female","1094727","","","","","","","","231","85","57","25","40","1",""
"null","null","clear_screen","canvas-keyboard-response","180","474200","0.0-11.0-1.84","104","2022-3-22","14:58:34","1","19","[""Asian"",""White""]","No","Female","1094727","","","","","","","","231","85","57","25","40","",""
"2906","2","rating","canvas-keyboard-response","181","477113","0.0-11.0-0.85","104","2022-3-22","14:58:34","1","19","[""Asian"",""White""]","No","Female","1094727","","","","","","","","166","113","30","17","25","1",""
"null","null","clear_screen","canvas-keyboard-response","182","477369","0.0-11.0-1.85","104","2022-3-22","14:58:34","1","19","[""Asian"",""White""]","No","Female","1094727","","","","","","","","166","113","30","17","25","",""
"4223","2","rating","canvas-keyboard-response","183","481601","0.0-11.0-0.86","104","2022-3-22","14:58:34","1","19","[""Asian"",""White""]","No","Female","1094727","","","","","","","","103","140","85","10","33","0",""
"null","null","clear_screen","canvas-keyboard-response","184","481855","0.0-11.0-1.86","104","2022-3-22","14:58:34","1","19","[""Asian"",""White""]","No","Female","1094727","","","","","","","","103","140","85","10","33","",""
"4027","5","rating","canvas-keyboard-response","185","485888","0.0-11.0-0.87","104","2022-3-22","14:58:34","1","19","[""Asian"",""White""]","No","Female","1094727","","","","","","","","30","57","85","10","17","0",""
"null","null","clear_screen","canvas-keyboard-response","186","486143","0.0-11.0-1.87","104","2022-3-22","14:58:34","1","19","[""Asian"",""White""]","No","Female","1094727","","","","","","","","30","57","85","10","17","",""
"1965","4","rating","canvas-keyboard-response","187","488113","0.0-11.0-0.88","104","2022-3-22","14:58:34","1","19","[""Asian"",""White""]","No","Female","1094727","","","","","","","","92","140","57","10","17","1",""
"null","null","clear_screen","canvas-keyboard-response","188","488367","0.0-11.0-1.88","104","2022-3-22","14:58:34","1","19","[""Asian"",""White""]","No","Female","1094727","","","","","","","","92","140","57","10","17","",""
"1684","1","rating","canvas-keyboard-response","189","490056","0.0-11.0-0.89","104","2022-3-22","14:58:34","1","19","[""Asian"",""White""]","No","Female","1094727","","","","","","","","18","30","113","10","33","0",""
"null","null","clear_screen","canvas-keyboard-response","190","490312","0.0-11.0-1.89","104","2022-3-22","14:58:34","1","19","[""Asian"",""White""]","No","Female","1094727","","","","","","","","18","30","113","10","33","",""
"2060","4","rating","canvas-keyboard-response","191","492377","0.0-11.0-0.90","104","2022-3-22","14:58:34","1","19","[""Asian"",""White""]","No","Female","1094727","","","","","","","","80","113","140","10","25","1",""
"null","null","clear_screen","canvas-keyboard-response","192","492631","0.0-11.0-1.90","104","2022-3-22","14:58:34","1","19","[""Asian"",""White""]","No","Female","1094727","","","","","","","","80","113","140","10","25","",""
"2180","5","rating","canvas-keyboard-response","193","494817","0.0-11.0-0.91","104","2022-3-22","14:58:34","1","19","[""Asian"",""White""]","No","Female","1094727","","","","","","","","245","113","140","25","40","0",""
"null","null","clear_screen","canvas-keyboard-response","194","495070","0.0-11.0-1.91","104","2022-3-22","14:58:34","1","19","[""Asian"",""White""]","No","Female","1094727","","","","","","","","245","113","140","25","40","",""
"1316","5","rating","canvas-keyboard-response","195","496393","0.0-11.0-0.92","104","2022-3-22","14:58:34","1","19","[""Asian"",""White""]","No","Female","1094727","","","","","","","","210","57","85","25","25","0",""
"null","null","clear_screen","canvas-keyboard-response","196","496647","0.0-11.0-1.92","104","2022-3-22","14:58:34","1","19","[""Asian"",""White""]","No","Female","1094727","","","","","","","","210","57","85","25","25","",""
"3420","4","rating","canvas-keyboard-response","197","500073","0.0-11.0-0.93","104","2022-3-22","14:58:34","1","19","[""Asian"",""White""]","No","Female","1094727","","","","","","","","164","85","140","17","40","0",""
"null","null","clear_screen","canvas-keyboard-response","198","500327","0.0-11.0-1.93","104","2022-3-22","14:58:34","1","19","[""Asian"",""White""]","No","Female","1094727","","","","","","","","164","85","140","17","40","",""
"2901","4","rating","canvas-keyboard-response","199","503233","0.0-11.0-0.94","104","2022-3-22","14:58:34","1","19","[""Asian"",""White""]","No","Female","1094727","","","","","","","","56","85","57","10","25","0",""
"null","null","clear_screen","canvas-keyboard-response","200","503488","0.0-11.0-1.94","104","2022-3-22","14:58:34","1","19","[""Asian"",""White""]","No","Female","1094727","","","","","","","","56","85","57","10","25","",""
"2162","4","rating","canvas-keyboard-response","201","505656","0.0-11.0-0.95","104","2022-3-22","14:58:34","1","19","[""Asian"",""White""]","No","Female","1094727","","","","","","","","180","113","140","17","40","1",""
"null","null","clear_screen","canvas-keyboard-response","202","505910","0.0-11.0-1.95","104","2022-3-22","14:58:34","1","19","[""Asian"",""White""]","No","Female","1094727","","","","","","","","180","113","140","17","40","",""
"1685","3","rating","canvas-keyboard-response","203","507600","0.0-11.0-0.96","104","2022-3-22","14:58:34","1","19","[""Asian"",""White""]","No","Female","1094727","","","","","","","","160","85","30","17","40","1",""
"null","null","clear_screen","canvas-keyboard-response","204","507855","0.0-11.0-1.96","104","2022-3-22","14:58:34","1","19","[""Asian"",""White""]","No","Female","1094727","","","","","","","","160","85","30","17","40","",""
"3733","2","rating","canvas-keyboard-response","205","511593","0.0-11.0-0.97","104","2022-3-22","14:58:34","1","19","[""Asian"",""White""]","No","Female","1094727","","","","","","","","181","140","30","17","25","0",""
"null","null","clear_screen","canvas-keyboard-response","206","511848","0.0-11.0-1.97","104","2022-3-22","14:58:34","1","19","[""Asian"",""White""]","No","Female","1094727","","","","","","","","181","140","30","17","25","",""
"2123","6","rating","canvas-keyboard-response","207","513976","0.0-11.0-0.98","104","2022-3-22","14:58:34","1","19","[""Asian"",""White""]","No","Female","1094727","","","","","","","","233","85","113","25","40","0",""
"null","null","clear_screen","canvas-keyboard-response","208","514231","0.0-11.0-1.98","104","2022-3-22","14:58:34","1","19","[""Asian"",""White""]","No","Female","1094727","","","","","","","","233","85","113","25","40","",""
"4603","7","rating","canvas-keyboard-response","209","518841","0.0-11.0-0.99","104","2022-3-22","14:58:34","1","19","[""Asian"",""White""]","No","Female","1094727","","","","","","","","131","57","113","17","17","0",""
"null","null","clear_screen","canvas-keyboard-response","210","519095","0.0-11.0-1.99","104","2022-3-22","14:58:34","1","19","[""Asian"",""White""]","No","Female","1094727","","","","","","","","131","57","113","17","17","",""
"3076","4","rating","canvas-keyboard-response","211","522176","0.0-11.0-0.100","104","2022-3-22","14:58:34","1","19","[""Asian"",""White""]","No","Female","1094727","","","","","","","","264","30","140","33","40","0",""
"null","null","clear_screen","canvas-keyboard-response","212","522431","0.0-11.0-1.100","104","2022-3-22","14:58:34","1","19","[""Asian"",""White""]","No","Female","1094727","","","","","","","","264","30","140","33","40","",""
"2907","8","rating","canvas-keyboard-response","213","525344","0.0-11.0-0.101","104","2022-3-22","14:58:34","1","19","[""Asian"",""White""]","No","Female","1094727","","","","","","","","70","113","140","10","10","1",""
"null","null","clear_screen","canvas-keyboard-response","214","525599","0.0-11.0-1.101","104","2022-3-22","14:58:34","1","19","[""Asian"",""White""]","No","Female","1094727","","","","","","","","70","113","140","10","10","",""
"3404","6","rating","canvas-keyboard-response","215","529009","0.0-11.0-0.102","104","2022-3-22","14:58:34","1","19","[""Asian"",""White""]","No","Female","1094727","","","","","","","","297","57","140","40","40","1",""
"null","null","clear_screen","canvas-keyboard-response","216","529262","0.0-11.0-1.102","104","2022-3-22","14:58:34","1","19","[""Asian"",""White""]","No","Female","1094727","","","","","","","","297","57","140","40","40","",""
"2908","2","rating","canvas-keyboard-response","217","532176","0.0-11.0-0.103","104","2022-3-22","14:58:34","1","19","[""Asian"",""White""]","No","Female","1094727","","","","","","","","129","30","140","17","40","0",""
"null","null","clear_screen","canvas-keyboard-response","218","532431","0.0-11.0-1.103","104","2022-3-22","14:58:34","1","19","[""Asian"",""White""]","No","Female","1094727","","","","","","","","129","30","140","17","40","",""
"3723","4","rating","canvas-keyboard-response","219","536160","0.0-11.0-0.104","104","2022-3-22","14:58:34","1","19","[""Asian"",""White""]","No","Female","1094727","","","","","","","","242","113","57","25","40","1",""
"null","null","clear_screen","canvas-keyboard-response","220","536417","0.0-11.0-1.104","104","2022-3-22","14:58:34","1","19","[""Asian"",""White""]","No","Female","1094727","","","","","","","","242","113","57","25","40","",""
"3018","6","rating","canvas-keyboard-response","221","539442","0.0-11.0-0.105","104","2022-3-22","14:58:34","1","19","[""Asian"",""White""]","No","Female","1094727","","","","","","","","3","30","113","10","10","1",""
"null","null","clear_screen","canvas-keyboard-response","222","539697","0.0-11.0-1.105","104","2022-3-22","14:58:34","1","19","[""Asian"",""White""]","No","Female","1094727","","","","","","","","3","30","113","10","10","",""
"4058","7","rating","canvas-keyboard-response","223","543761","0.0-11.0-0.106","104","2022-3-22","14:58:34","1","19","[""Asian"",""White""]","No","Female","1094727","","","","","","","","270","57","85","33","40","1",""
"null","null","clear_screen","canvas-keyboard-response","224","544015","0.0-11.0-1.106","104","2022-3-22","14:58:34","1","19","[""Asian"",""White""]","No","Female","1094727","","","","","","","","270","57","85","33","40","",""
"1723","7","rating","canvas-keyboard-response","225","545745","0.0-11.0-0.107","104","2022-3-22","14:58:34","1","19","[""Asian"",""White""]","No","Female","1094727","","","","","","","","111","30","57","17","17","1",""
"null","null","clear_screen","canvas-keyboard-response","226","546000","0.0-11.0-1.107","104","2022-3-22","14:58:34","1","19","[""Asian"",""White""]","No","Female","1094727","","","","","","","","111","30","57","17","17","",""
"3756","6","rating","canvas-keyboard-response","227","549761","0.0-11.0-0.108","104","2022-3-22","14:58:34","1","19","[""Asian"",""White""]","No","Female","1094727","","","","","","","","138","57","30","17","33","0",""
"null","null","clear_screen","canvas-keyboard-response","228","550015","0.0-11.0-1.108","104","2022-3-22","14:58:34","1","19","[""Asian"",""White""]","No","Female","1094727","","","","","","","","138","57","30","17","33","",""
"2412","6","rating","canvas-keyboard-response","229","552433","0.0-11.0-0.109","104","2022-3-22","14:58:34","1","19","[""Asian"",""White""]","No","Female","1094727","","","","","","","","211","57","113","25","25","1",""
"null","null","clear_screen","canvas-keyboard-response","230","552687","0.0-11.0-1.109","104","2022-3-22","14:58:34","1","19","[""Asian"",""White""]","No","Female","1094727","","","","","","","","211","57","113","25","25","",""
"2156","5","rating","canvas-keyboard-response","231","554849","0.0-11.0-0.110","104","2022-3-22","14:58:34","1","19","[""Asian"",""White""]","No","Female","1094727","","","","","","","","91","140","30","10","17","0",""
"null","null","clear_screen","canvas-keyboard-response","232","555103","0.0-11.0-1.110","104","2022-3-22","14:58:34","1","19","[""Asian"",""White""]","No","Female","1094727","","","","","","","","91","140","30","10","17","",""
"1844","5","rating","canvas-keyboard-response","233","556953","0.0-11.0-0.111","104","2022-3-22","14:58:34","1","19","[""Asian"",""White""]","No","Female","1094727","","","","","","","","241","113","30","25","40","0",""
"null","null","clear_screen","canvas-keyboard-response","234","557207","0.0-11.0-1.111","104","2022-3-22","14:58:34","1","19","[""Asian"",""White""]","No","Female","1094727","","","","","","","","241","113","30","25","40","",""
"3173","4","rating","canvas-keyboard-response","235","560385","0.0-11.0-0.112","104","2022-3-22","14:58:34","1","19","[""Asian"",""White""]","No","Female","1094727","","","","","","","","90","113","140","10","40","1",""
"null","null","clear_screen","canvas-keyboard-response","236","560638","0.0-11.0-1.112","104","2022-3-22","14:58:34","1","19","[""Asian"",""White""]","No","Female","1094727","","","","","","","","90","113","140","10","40","",""
"2414","7","rating","canvas-keyboard-response","237","563056","0.0-11.0-0.113","104","2022-3-22","14:58:34","1","19","[""Asian"",""White""]","No","Female","1094727","","","","","","","","216","57","113","25","33","1",""
"null","null","clear_screen","canvas-keyboard-response","238","563312","0.0-11.0-1.113","104","2022-3-22","14:58:34","1","19","[""Asian"",""White""]","No","Female","1094727","","","","","","","","216","57","113","25","33","",""
"5779","8","rating","canvas-keyboard-response","239","569096","0.0-11.0-0.114","104","2022-3-22","14:58:34","1","19","[""Asian"",""White""]","No","Female","1094727","","","","","","","","256","30","57","33","33","1",""
"null","null","clear_screen","canvas-keyboard-response","240","569351","0.0-11.0-1.114","104","2022-3-22","14:58:34","1","19","[""Asian"",""White""]","No","Female","1094727","","","","","","","","256","30","57","33","33","",""
"3363","7","rating","canvas-keyboard-response","241","572720","0.0-11.0-0.115","104","2022-3-22","14:58:34","1","19","[""Asian"",""White""]","No","Female","1094727","","","","","","","","144","57","57","17","40","1",""
"null","null","clear_screen","canvas-keyboard-response","242","572974","0.0-11.0-1.115","104","2022-3-22","14:58:34","1","19","[""Asian"",""White""]","No","Female","1094727","","","","","","","","144","57","57","17","40","",""
"5093","8","rating","canvas-keyboard-response","243","578074","0.0-11.0-0.116","104","2022-3-22","14:58:34","1","19","[""Asian"",""White""]","No","Female","1094727","","","","","","","","223","85","113","25","25","1",""
"null","null","clear_screen","canvas-keyboard-response","244","578327","0.0-11.0-1.116","104","2022-3-22","14:58:34","1","19","[""Asian"",""White""]","No","Female","1094727","","","","","","","","223","85","113","25","25","",""
"2700","5","rating","canvas-keyboard-response","245","581032","0.0-11.0-0.117","104","2022-3-22","14:58:34","1","19","[""Asian"",""White""]","No","Female","1094727","","","","","","","","162","85","85","17","40","1",""
"null","null","clear_screen","canvas-keyboard-response","246","581287","0.0-11.0-1.117","104","2022-3-22","14:58:34","1","19","[""Asian"",""White""]","No","Female","1094727","","","","","","","","162","85","85","17","40","",""
"3764","6","rating","canvas-keyboard-response","247","585057","0.0-11.0-0.118","104","2022-3-22","14:58:34","1","19","[""Asian"",""White""]","No","Female","1094727","","","","","","","","100","140","140","10","25","1",""
"null","null","clear_screen","canvas-keyboard-response","248","585313","0.0-11.0-1.118","104","2022-3-22","14:58:34","1","19","[""Asian"",""White""]","No","Female","1094727","","","","","","","","100","140","140","10","25","",""
"1984","5","rating","canvas-keyboard-response","249","587305","0.0-11.0-0.119","104","2022-3-22","14:58:34","1","19","[""Asian"",""White""]","No","Female","1094727","","","","","","","","236","113","30","25","33","0",""
"null","null","clear_screen","canvas-keyboard-response","250","587559","0.0-11.0-1.119","104","2022-3-22","14:58:34","1","19","[""Asian"",""White""]","No","Female","1094727","","","","","","","","236","113","30","25","33","",""
"4645","5","rating","canvas-keyboard-response","251","592208","0.0-11.0-0.120","104","2022-3-22","14:58:34","1","19","[""Asian"",""White""]","No","Female","1094727","","","","","","","","226","85","57","25","33","1",""
"null","null","clear_screen","canvas-keyboard-response","252","592464","0.0-11.0-1.120","104","2022-3-22","14:58:34","1","19","[""Asian"",""White""]","No","Female","1094727","","","","","","","","226","85","57","25","33","",""
"5572","8","rating","canvas-keyboard-response","253","598040","0.0-11.0-0.121","104","2022-3-22","14:58:34","1","19","[""Asian"",""White""]","No","Female","1094727","","","","","","","","169","113","113","17","25","0",""
"null","null","clear_screen","canvas-keyboard-response","254","598296","0.0-11.0-1.121","104","2022-3-22","14:58:34","1","19","[""Asian"",""White""]","No","Female","1094727","","","","","","","","169","113","113","17","25","",""
"5148","8","rating","canvas-keyboard-response","255","603449","0.0-11.0-0.122","104","2022-3-22","14:58:34","1","19","[""Asian"",""White""]","No","Female","1094727","","","","","","","","285","113","140","33","40","1",""
"null","null","clear_screen","canvas-keyboard-response","256","603704","0.0-11.0-1.122","104","2022-3-22","14:58:34","1","19","[""Asian"",""White""]","No","Female","1094727","","","","","","","","285","113","140","33","40","",""
"3164","8","rating","canvas-keyboard-response","257","606872","0.0-11.0-0.123","104","2022-3-22","14:58:34","1","19","[""Asian"",""White""]","No","Female","1094727","","","","","","","","5","30","30","10","17","0",""
"null","null","clear_screen","canvas-keyboard-response","258","607127","0.0-11.0-1.123","104","2022-3-22","14:58:34","1","19","[""Asian"",""White""]","No","Female","1094727","","","","","","","","5","30","30","10","17","",""
"1397","8","rating","canvas-keyboard-response","259","608529","0.0-11.0-0.124","104","2022-3-22","14:58:34","1","19","[""Asian"",""White""]","No","Female","1094727","","","","","","","","261","30","57","33","40","0",""
"null","null","clear_screen","canvas-keyboard-response","260","608782","0.0-11.0-1.124","104","2022-3-22","14:58:34","1","19","[""Asian"",""White""]","No","Female","1094727","","","","","","","","261","30","57","33","40","",""
"3605","6","rating","canvas-keyboard-response","261","612392","0.0-11.0-0.125","104","2022-3-22","14:58:34","1","19","[""Asian"",""White""]","No","Female","1094727","","","","","","","","33","57","30","10","25","0",""
"null","null","clear_screen","canvas-keyboard-response","262","612646","0.0-11.0-1.125","104","2022-3-22","14:58:34","1","19","[""Asian"",""White""]","No","Female","1094727","","","","","","","","33","57","30","10","25","",""
"2797","6","rating","canvas-keyboard-response","263","615449","0.0-11.0-0.126","104","2022-3-22","14:58:34","1","19","[""Asian"",""White""]","No","Female","1094727","","","","","","","","104","140","113","10","33","0",""
"null","null","clear_screen","canvas-keyboard-response","264","615704","0.0-11.0-1.126","104","2022-3-22","14:58:34","1","19","[""Asian"",""White""]","No","Female","1094727","","","","","","","","104","140","113","10","33","",""
"1809","6","rating","canvas-keyboard-response","265","617520","0.0-11.0-0.127","104","2022-3-22","14:58:34","1","19","[""Asian"",""White""]","No","Female","1094727","","","","","","","","133","57","30","17","25","0",""
"null","null","clear_screen","canvas-keyboard-response","266","617776","0.0-11.0-1.127","104","2022-3-22","14:58:34","1","19","[""Asian"",""White""]","No","Female","1094727","","","","","","","","133","57","30","17","25","",""
"2690","4","rating","canvas-keyboard-response","267","620473","0.0-11.0-0.128","104","2022-3-22","14:58:34","1","19","[""Asian"",""White""]","No","Female","1094727","","","","","","","","107","140","57","10","40","0",""
"null","null","clear_screen","canvas-keyboard-response","268","620729","0.0-11.0-1.128","104","2022-3-22","14:58:34","1","19","[""Asian"",""White""]","No","Female","1094727","","","","","","","","107","140","57","10","40","",""
"1794","4","rating","canvas-keyboard-response","269","622528","0.0-11.0-0.129","104","2022-3-22","14:58:34","1","19","[""Asian"",""White""]","No","Female","1094727","","","","","","","","206","30","57","25","40","1",""
"null","null","clear_screen","canvas-keyboard-response","270","622783","0.0-11.0-1.129","104","2022-3-22","14:58:34","1","19","[""Asian"",""White""]","No","Female","1094727","","","","","","","","206","30","57","25","40","",""
"6286","7","rating","canvas-keyboard-response","271","629073","0.0-11.0-0.130","104","2022-3-22","14:58:34","1","19","[""Asian"",""White""]","No","Female","1094727","","","","","","","","271","57","113","33","40","0",""
"null","null","clear_screen","canvas-keyboard-response","272","629326","0.0-11.0-1.130","104","2022-3-22","14:58:34","1","19","[""Asian"",""White""]","No","Female","1094727","","","","","","","","271","57","113","33","40","",""
"2853","8","rating","canvas-keyboard-response","273","632184","0.0-11.0-0.131","104","2022-3-22","14:58:34","1","19","[""Asian"",""White""]","No","Female","1094727","","","","","","","","280","113","140","33","33","1",""
"null","null","clear_screen","canvas-keyboard-response","274","632438","0.0-11.0-1.131","104","2022-3-22","14:58:34","1","19","[""Asian"",""White""]","No","Female","1094727","","","","","","","","280","113","140","33","33","",""
"3333","6","rating","canvas-keyboard-response","275","635776","0.0-11.0-0.132","104","2022-3-22","14:58:34","1","19","[""Asian"",""White""]","No","Female","1094727","","","","","","","","202","30","85","25","33","0",""
"null","null","clear_screen","canvas-keyboard-response","276","636030","0.0-11.0-1.132","104","2022-3-22","14:58:34","1","19","[""Asian"",""White""]","No","Female","1094727","","","","","","","","202","30","85","25","33","",""
"1958","4","rating","canvas-keyboard-response","277","637992","0.0-11.0-0.133","104","2022-3-22","14:58:34","1","19","[""Asian"",""White""]","No","Female","1094727","","","","","","","","150","85","30","17","25","0",""
"null","null","clear_screen","canvas-keyboard-response","278","638247","0.0-11.0-1.133","104","2022-3-22","14:58:34","1","19","[""Asian"",""White""]","No","Female","1094727","","","","","","","","150","85","30","17","25","",""
"3045","6","rating","canvas-keyboard-response","279","641299","0.0-11.0-0.134","104","2022-3-22","14:58:34","1","19","[""Asian"",""White""]","No","Female","1094727","","","","","","","","293","30","113","40","40","0",""
"null","null","clear_screen","canvas-keyboard-response","280","641559","0.0-11.0-1.134","104","2022-3-22","14:58:34","1","19","[""Asian"",""White""]","No","Female","1094727","","","","","","","","293","30","113","40","40","",""
"2287","7","rating","canvas-keyboard-response","281","643858","0.0-11.0-0.135","104","2022-3-22","14:58:34","1","19","[""Asian"",""White""]","No","Female","1094727","","","","","","","","284","113","113","33","40","1",""
"null","null","clear_screen","canvas-keyboard-response","282","644119","0.0-11.0-1.135","104","2022-3-22","14:58:34","1","19","[""Asian"",""White""]","No","Female","1094727","","","","","","","","284","113","113","33","40","",""
"5963","4","rating","canvas-keyboard-response","283","650099","0.0-11.0-0.136","104","2022-3-22","14:58:34","1","19","[""Asian"",""White""]","No","Female","1094727","","","","","","","","41","57","113","10","33","1",""
"null","null","clear_screen","canvas-keyboard-response","284","650361","0.0-11.0-1.136","104","2022-3-22","14:58:34","1","19","[""Asian"",""White""]","No","Female","1094727","","","","","","","","41","57","113","10","33","",""
"2376","7","rating","canvas-keyboard-response","285","652753","0.0-11.0-0.137","104","2022-3-22","14:58:34","1","19","[""Asian"",""White""]","No","Female","1094727","","","","","","","","250","140","140","25","33","1",""
"null","null","clear_screen","canvas-keyboard-response","286","653015","0.0-11.0-1.137","104","2022-3-22","14:58:34","1","19","[""Asian"",""White""]","No","Female","1094727","","","","","","","","250","140","140","25","33","",""
"5048","6","rating","canvas-keyboard-response","287","658074","0.0-11.0-0.138","104","2022-3-22","14:58:34","1","19","[""Asian"",""White""]","No","Female","1094727","","","","","","","","283","113","85","33","40","0",""
"null","null","clear_screen","canvas-keyboard-response","288","658335","0.0-11.0-1.138","104","2022-3-22","14:58:34","1","19","[""Asian"",""White""]","No","Female","1094727","","","","","","","","283","113","85","33","40","",""
"1656","6","rating","canvas-keyboard-response","289","660002","0.0-11.0-0.139","104","2022-3-22","14:58:34","1","19","[""Asian"",""White""]","No","Female","1094727","","","","","","","","296","57","113","40","40","0",""
"null","null","clear_screen","canvas-keyboard-response","290","660263","0.0-11.0-1.139","104","2022-3-22","14:58:34","1","19","[""Asian"",""White""]","No","Female","1094727","","","","","","","","296","57","113","40","40","",""
"3861","4","rating","canvas-keyboard-response","291","664138","0.0-11.0-0.140","104","2022-3-22","14:58:34","1","19","[""Asian"",""White""]","No","Female","1094727","","","","","","","","182","140","57","17","25","1",""
"null","null","clear_screen","canvas-keyboard-response","292","664399","0.0-11.0-1.140","104","2022-3-22","14:58:34","1","19","[""Asian"",""White""]","No","Female","1094727","","","","","","","","182","140","57","17","25","",""
"1769","5","rating","canvas-keyboard-response","293","666179","0.0-11.0-0.141","104","2022-3-22","14:58:34","1","19","[""Asian"",""White""]","No","Female","1094727","","","","","","","","158","85","113","17","33","1",""
"null","null","clear_screen","canvas-keyboard-response","294","666439","0.0-11.0-1.141","104","2022-3-22","14:58:34","1","19","[""Asian"",""White""]","No","Female","1094727","","","","","","","","158","85","113","17","33","",""
"2218","3","rating","canvas-keyboard-response","295","668666","0.0-11.0-0.142","104","2022-3-22","14:58:34","1","19","[""Asian"",""White""]","No","Female","1094727","","","","","","","","161","85","57","17","40","1",""
"null","null","clear_screen","canvas-keyboard-response","296","668925","0.0-11.0-1.142","104","2022-3-22","14:58:34","1","19","[""Asian"",""White""]","No","Female","1094727","","","","","","","","161","85","57","17","40","",""
"3677","3","rating","canvas-keyboard-response","297","672618","0.0-11.0-0.143","104","2022-3-22","14:58:34","1","19","[""Asian"",""White""]","No","Female","1094727","","","","","","","","142","57","140","17","33","0",""
"null","null","clear_screen","canvas-keyboard-response","298","672879","0.0-11.0-1.143","104","2022-3-22","14:58:34","1","19","[""Asian"",""White""]","No","Female","1094727","","","","","","","","142","57","140","17","33","",""
"2181","2","rating","canvas-keyboard-response","299","675075","0.0-11.0-0.144","104","2022-3-22","14:58:34","1","19","[""Asian"",""White""]","No","Female","1094727","","","","","","","","109","140","113","10","40","0",""
"null","null","clear_screen","canvas-keyboard-response","300","675337","0.0-11.0-1.144","104","2022-3-22","14:58:34","1","19","[""Asian"",""White""]","No","Female","1094727","","","","","","","","109","140","113","10","40","",""
"3297","7","rating","canvas-keyboard-response","301","678650","0.0-11.0-0.145","104","2022-3-22","14:58:34","1","19","[""Asian"",""White""]","No","Female","1094727","","","","","","","","273","85","113","33","33","0",""
"null","null","clear_screen","canvas-keyboard-response","302","678910","0.0-11.0-1.145","104","2022-3-22","14:58:34","1","19","[""Asian"",""White""]","No","Female","1094727","","","","","","","","273","85","113","33","33","",""
"3768","6","rating","canvas-keyboard-response","303","682691","0.0-11.0-0.146","104","2022-3-22","14:58:34","1","19","[""Asian"",""White""]","No","Female","1094727","","","","","","","","28","57","30","10","17","0",""
"null","null","clear_screen","canvas-keyboard-response","304","682951","0.0-11.0-1.146","104","2022-3-22","14:58:34","1","19","[""Asian"",""White""]","No","Female","1094727","","","","","","","","28","57","30","10","17","",""
"1859","4","rating","canvas-keyboard-response","305","684818","0.0-11.0-0.147","104","2022-3-22","14:58:34","1","19","[""Asian"",""White""]","No","Female","1094727","","","","","","","","68","85","113","10","40","1",""
"null","null","clear_screen","canvas-keyboard-response","306","685079","0.0-11.0-1.147","104","2022-3-22","14:58:34","1","19","[""Asian"",""White""]","No","Female","1094727","","","","","","","","68","85","113","10","40","",""
"4422","5","rating","canvas-keyboard-response","307","689515","0.0-11.0-0.148","104","2022-3-22","14:58:34","1","19","[""Asian"",""White""]","No","Female","1094727","","","","","","","","188","140","85","17","33","1",""
"null","null","clear_screen","canvas-keyboard-response","308","689776","0.0-11.0-1.148","104","2022-3-22","14:58:34","1","19","[""Asian"",""White""]","No","Female","1094727","","","","","","","","188","140","85","17","33","",""
"1985","5","rating","canvas-keyboard-response","309","691771","0.0-11.0-0.149","104","2022-3-22","14:58:34","1","19","[""Asian"",""White""]","No","Female","1094727","","","","","","","","224","85","140","25","25","1",""
"null","null","clear_screen","canvas-keyboard-response","310","692034","0.0-11.0-1.149","104","2022-3-22","14:58:34","1","19","[""Asian"",""White""]","No","Female","1094727","","","","","","","","224","85","140","25","25","",""
"1461","5","rating","canvas-keyboard-response","311","693506","0.0-11.0-0.150","104","2022-3-22","14:58:34","1","19","[""Asian"",""White""]","No","Female","1094727","","","","","","","","266","57","113","33","33","0",""
"null","null","clear_screen","canvas-keyboard-response","312","693767","0.0-11.0-1.150","104","2022-3-22","14:58:34","1","19","[""Asian"",""White""]","No","Female","1094727","","","","","","","","266","57","113","33","33","",""
"3802","3","rating","canvas-keyboard-response","313","697579","0.0-11.0-0.151","104","2022-3-22","14:58:34","1","19","[""Asian"",""White""]","No","Female","1094727","","","","","","","","67","85","85","10","40","0",""
"null","null","clear_screen","canvas-keyboard-response","314","697839","0.0-11.0-1.151","104","2022-3-22","14:58:34","1","19","[""Asian"",""White""]","No","Female","1094727","","","","","","","","67","85","85","10","40","",""
"3112","6","rating","canvas-keyboard-response","315","700963","0.0-11.0-0.152","104","2022-3-22","14:58:34","1","19","[""Asian"",""White""]","No","Female","1094727","","","","","","","","213","57","30","25","33","0",""
"null","null","clear_screen","canvas-keyboard-response","316","701223","0.0-11.0-1.152","104","2022-3-22","14:58:34","1","19","[""Asian"",""White""]","No","Female","1094727","","","","","","","","213","57","30","25","33","",""
"1909","3","rating","canvas-keyboard-response","317","703147","0.0-11.0-0.153","104","2022-3-22","14:58:34","1","19","[""Asian"",""White""]","No","Female","1094727","","","","","","","","8","30","113","10","17","1",""
"null","null","clear_screen","canvas-keyboard-response","318","703406","0.0-11.0-1.153","104","2022-3-22","14:58:34","1","19","[""Asian"",""White""]","No","Female","1094727","","","","","","","","8","30","113","10","17","",""
"5088","5","rating","canvas-keyboard-response","319","708507","0.0-11.0-0.154","104","2022-3-22","14:58:34","1","19","[""Asian"",""White""]","No","Female","1094727","","","","","","","","229","85","140","25","33","0",""
"null","null","clear_screen","canvas-keyboard-response","320","708767","0.0-11.0-1.154","104","2022-3-22","14:58:34","1","19","[""Asian"",""White""]","No","Female","1094727","","","","","","","","229","85","140","25","33","",""
"1893","3","rating","canvas-keyboard-response","321","710673","0.0-11.0-0.155","104","2022-3-22","14:58:34","1","19","[""Asian"",""White""]","No","Female","1094727","","","","","","","","66","85","57","10","40","0",""
"null","null","clear_screen","canvas-keyboard-response","322","710932","0.0-11.0-1.155","104","2022-3-22","14:58:34","1","19","[""Asian"",""White""]","No","Female","1094727","","","","","","","","66","85","57","10","40","",""
"3248","5","rating","canvas-keyboard-response","323","714194","0.0-11.0-0.156","104","2022-3-22","14:58:34","1","19","[""Asian"",""White""]","No","Female","1094727","","","","","","","","281","113","30","33","40","0",""
"null","null","clear_screen","canvas-keyboard-response","324","714455","0.0-11.0-1.156","104","2022-3-22","14:58:34","1","19","[""Asian"",""White""]","No","Female","1094727","","","","","","","","281","113","30","33","40","",""
"3614","6","rating","canvas-keyboard-response","325","718082","0.0-11.0-0.157","104","2022-3-22","14:58:34","1","19","[""Asian"",""White""]","No","Female","1094727","","","","","","","","79","113","113","10","25","1",""
"null","null","clear_screen","canvas-keyboard-response","326","718344","0.0-11.0-1.157","104","2022-3-22","14:58:34","1","19","[""Asian"",""White""]","No","Female","1094727","","","","","","","","79","113","113","10","25","",""
"4873","5","rating","canvas-keyboard-response","327","723233","0.0-11.0-0.158","104","2022-3-22","14:58:34","1","19","[""Asian"",""White""]","No","Female","1094727","","","","","","","","99","140","113","10","25","1",""
"null","null","clear_screen","canvas-keyboard-response","328","723493","0.0-11.0-1.158","104","2022-3-22","14:58:34","1","19","[""Asian"",""White""]","No","Female","1094727","","","","","","","","99","140","113","10","25","",""
"1361","4","rating","canvas-keyboard-response","329","724866","0.0-11.0-0.159","104","2022-3-22","14:58:34","1","19","[""Asian"",""White""]","No","Female","1094727","","","","","","","","11","30","57","10","25","1",""
"null","null","clear_screen","canvas-keyboard-response","330","725126","0.0-11.0-1.159","104","2022-3-22","14:58:34","1","19","[""Asian"",""White""]","No","Female","1094727","","","","","","","","11","30","57","10","25","",""
"1832","5","rating","canvas-keyboard-response","331","726970","0.0-11.0-0.160","104","2022-3-22","14:58:34","1","19","[""Asian"",""White""]","No","Female","1094727","","","","","","","","196","30","57","25","25","1",""
"null","null","clear_screen","canvas-keyboard-response","332","727233","0.0-11.0-1.160","104","2022-3-22","14:58:34","1","19","[""Asian"",""White""]","No","Female","1094727","","","","","","","","196","30","57","25","25","",""
"1230","3","rating","canvas-keyboard-response","333","728474","0.0-11.0-0.161","104","2022-3-22","14:58:34","1","19","[""Asian"",""White""]","No","Female","1094727","","","","","","","","9","30","140","10","17","1",""
"null","null","clear_screen","canvas-keyboard-response","334","728736","0.0-11.0-1.161","104","2022-3-22","14:58:34","1","19","[""Asian"",""White""]","No","Female","1094727","","","","","","","","9","30","140","10","17","",""
"2157","4","rating","canvas-keyboard-response","335","730907","0.0-11.0-0.162","104","2022-3-22","14:58:34","1","19","[""Asian"",""White""]","No","Female","1094727","","","","","","","","246","140","30","25","33","1",""
"null","null","clear_screen","canvas-keyboard-response","336","731166","0.0-11.0-1.162","104","2022-3-22","14:58:34","1","19","[""Asian"",""White""]","No","Female","1094727","","","","","","","","246","140","30","25","33","",""
"1505","3","rating","canvas-keyboard-response","337","732683","0.0-11.0-0.163","104","2022-3-22","14:58:34","1","19","[""Asian"",""White""]","No","Female","1094727","","","","","","","","63","85","113","10","33","0",""
"null","null","clear_screen","canvas-keyboard-response","338","732941","0.0-11.0-1.163","104","2022-3-22","14:58:34","1","19","[""Asian"",""White""]","No","Female","1094727","","","","","","","","63","85","113","10","33","",""
"1389","5","rating","canvas-keyboard-response","339","734346","0.0-11.0-0.164","104","2022-3-22","14:58:34","1","19","[""Asian"",""White""]","No","Female","1094727","","","","","","","","183","140","85","17","25","0",""
"null","null","clear_screen","canvas-keyboard-response","340","734606","0.0-11.0-1.164","104","2022-3-22","14:58:34","1","19","[""Asian"",""White""]","No","Female","1094727","","","","","","","","183","140","85","17","25","",""
"1717","3","rating","canvas-keyboard-response","341","736338","0.0-11.0-0.165","104","2022-3-22","14:58:34","1","19","[""Asian"",""White""]","No","Female","1094727","","","","","","","","171","113","30","17","33","1",""
"null","null","clear_screen","canvas-keyboard-response","342","736598","0.0-11.0-1.165","104","2022-3-22","14:58:34","1","19","[""Asian"",""White""]","No","Female","1094727","","","","","","","","171","113","30","17","33","",""
"1621","2","rating","canvas-keyboard-response","343","738234","0.0-11.0-0.166","104","2022-3-22","14:58:34","1","19","[""Asian"",""White""]","No","Female","1094727","","","","","","","","50","85","30","10","17","1",""
"null","null","clear_screen","canvas-keyboard-response","344","738495","0.0-11.0-1.166","104","2022-3-22","14:58:34","1","19","[""Asian"",""White""]","No","Female","1094727","","","","","","","","50","85","30","10","17","",""
"5301","6","rating","canvas-keyboard-response","345","743811","0.0-11.0-0.167","104","2022-3-22","14:58:34","1","19","[""Asian"",""White""]","No","Female","1094727","","","","","","","","274","85","140","33","33","0",""
"null","null","clear_screen","canvas-keyboard-response","346","744069","0.0-11.0-1.167","104","2022-3-22","14:58:34","1","19","[""Asian"",""White""]","No","Female","1094727","","","","","","","","274","85","140","33","33","",""
"1984","2","rating","canvas-keyboard-response","347","746066","0.0-11.0-0.168","104","2022-3-22","14:58:34","1","19","[""Asian"",""White""]","No","Female","1094727","","","","","","","","191","140","30","17","40","0",""
"null","null","clear_screen","canvas-keyboard-response","348","746326","0.0-11.0-1.168","104","2022-3-22","14:58:34","1","19","[""Asian"",""White""]","No","Female","1094727","","","","","","","","191","140","30","17","40","",""
"2084","6","rating","canvas-keyboard-response","349","748426","0.0-11.0-0.169","104","2022-3-22","14:58:34","1","19","[""Asian"",""White""]","No","Female","1094727","","","","","","","","248","140","85","25","33","0",""
"null","null","clear_screen","canvas-keyboard-response","350","748687","0.0-11.0-1.169","104","2022-3-22","14:58:34","1","19","[""Asian"",""White""]","No","Female","1094727","","","","","","","","248","140","85","25","33","",""
"1534","3","rating","canvas-keyboard-response","351","750234","0.0-11.0-0.170","104","2022-3-22","14:58:34","1","19","[""Asian"",""White""]","No","Female","1094727","","","","","","","","2","30","85","10","10","0",""
"null","null","clear_screen","canvas-keyboard-response","352","750492","0.0-11.0-1.170","104","2022-3-22","14:58:34","1","19","[""Asian"",""White""]","No","Female","1094727","","","","","","","","2","30","85","10","10","",""
"1872","5","rating","canvas-keyboard-response","353","752379","0.0-11.0-0.171","104","2022-3-22","14:58:34","1","19","[""Asian"",""White""]","No","Female","1094727","","","","","","","","217","57","140","25","33","0",""
"null","null","clear_screen","canvas-keyboard-response","354","752643","0.0-11.0-1.171","104","2022-3-22","14:58:34","1","19","[""Asian"",""White""]","No","Female","1094727","","","","","","","","217","57","140","25","33","",""
"2258","6","rating","canvas-keyboard-response","355","754914","0.0-11.0-0.172","104","2022-3-22","14:58:34","1","19","[""Asian"",""White""]","No","Female","1094727","","","","","","","","139","57","57","17","33","0",""
"null","null","clear_screen","canvas-keyboard-response","356","755176","0.0-11.0-1.172","104","2022-3-22","14:58:34","1","19","[""Asian"",""White""]","No","Female","1094727","","","","","","","","139","57","57","17","33","",""
"1679","6","rating","canvas-keyboard-response","357","756867","0.0-11.0-0.173","104","2022-3-22","14:58:34","1","19","[""Asian"",""White""]","No","Female","1094727","","","","","","","","195","140","140","17","40","1",""
"null","null","clear_screen","canvas-keyboard-response","358","757127","0.0-11.0-1.173","104","2022-3-22","14:58:34","1","19","[""Asian"",""White""]","No","Female","1094727","","","","","","","","195","140","140","17","40","",""
"2145","6","rating","canvas-keyboard-response","359","759282","0.0-11.0-0.174","104","2022-3-22","14:58:34","1","19","[""Asian"",""White""]","No","Female","1094727","","","","","","","","159","85","140","17","33","0",""
"null","null","clear_screen","canvas-keyboard-response","360","759543","0.0-11.0-1.174","104","2022-3-22","14:58:34","1","19","[""Asian"",""White""]","No","Female","1094727","","","","","","","","159","85","140","17","33","",""
"2583","7","rating","canvas-keyboard-response","361","762138","0.0-11.0-0.175","104","2022-3-22","14:58:34","1","19","[""Asian"",""White""]","No","Female","1094727","","","","","","","","130","57","85","17","17","1",""
"null","null","clear_screen","canvas-keyboard-response","362","762397","0.0-11.0-1.175","104","2022-3-22","14:58:34","1","19","[""Asian"",""White""]","No","Female","1094727","","","","","","","","130","57","85","17","17","",""
"2547","6","rating","canvas-keyboard-response","363","764955","0.0-11.0-0.176","104","2022-3-22","14:58:34","1","19","[""Asian"",""White""]","No","Female","1094727","","","","","","","","85","113","140","10","33","1",""
"null","null","clear_screen","canvas-keyboard-response","364","765215","0.0-11.0-1.176","104","2022-3-22","14:58:34","1","19","[""Asian"",""White""]","No","Female","1094727","","","","","","","","85","113","140","10","33","",""
"1524","3","rating","canvas-keyboard-response","365","766754","0.0-11.0-0.177","104","2022-3-22","14:58:34","1","19","[""Asian"",""White""]","No","Female","1094727","","","","","","","","13","30","113","10","25","1",""
"null","null","clear_screen","canvas-keyboard-response","366","767016","0.0-11.0-1.177","104","2022-3-22","14:58:34","1","19","[""Asian"",""White""]","No","Female","1094727","","","","","","","","13","30","113","10","25","",""
"1637","3","rating","canvas-keyboard-response","367","768666","0.0-11.0-0.178","104","2022-3-22","14:58:34","1","19","[""Asian"",""White""]","No","Female","1094727","","","","","","","","37","57","140","10","25","1",""
"null","null","clear_screen","canvas-keyboard-response","368","768924","0.0-11.0-1.178","104","2022-3-22","14:58:34","1","19","[""Asian"",""White""]","No","Female","1094727","","","","","","","","37","57","140","10","25","",""
"2035","6","rating","canvas-keyboard-response","369","770970","0.0-11.0-0.179","104","2022-3-22","14:58:34","1","19","[""Asian"",""White""]","No","Female","1094727","","","","","","","","153","85","113","17","25","0",""
"null","null","clear_screen","canvas-keyboard-response","370","771231","0.0-11.0-1.179","104","2022-3-22","14:58:34","1","19","[""Asian"",""White""]","No","Female","1094727","","","","","","","","153","85","113","17","25","",""
"2973","4","rating","canvas-keyboard-response","371","774218","0.0-11.0-0.180","104","2022-3-22","14:58:34","1","19","[""Asian"",""White""]","No","Female","1094727","","","","","","","","88","113","85","10","40","0",""
"null","null","clear_screen","canvas-keyboard-response","372","774478","0.0-11.0-1.180","104","2022-3-22","14:58:34","1","19","[""Asian"",""White""]","No","Female","1094727","","","","","","","","88","113","85","10","40","",""
"4773","3","rating","canvas-keyboard-response","373","779266","0.0-11.0-0.181","104","2022-3-22","14:58:34","1","19","[""Asian"",""White""]","No","Female","1094727","","","","","","","","82","113","57","10","33","0",""
"null","null","clear_screen","canvas-keyboard-response","374","779526","0.0-11.0-1.181","104","2022-3-22","14:58:34","1","19","[""Asian"",""White""]","No","Female","1094727","","","","","","","","82","113","57","10","33","",""
"2172","7","rating","canvas-keyboard-response","375","781714","0.0-11.0-0.182","104","2022-3-22","14:58:34","1","19","[""Asian"",""White""]","No","Female","1094727","","","","","","","","152","85","85","17","25","1",""
"null","null","clear_screen","canvas-keyboard-response","376","781974","0.0-11.0-1.182","104","2022-3-22","14:58:34","1","19","[""Asian"",""White""]","No","Female","1094727","","","","","","","","152","85","85","17","25","",""
"3646","6","rating","canvas-keyboard-response","377","785634","0.0-11.0-0.183","104","2022-3-22","14:58:34","1","19","[""Asian"",""White""]","No","Female","1094727","","","","","","","","132","57","140","17","17","1",""
"null","null","clear_screen","canvas-keyboard-response","378","785894","0.0-11.0-1.183","104","2022-3-22","14:58:34","1","19","[""Asian"",""White""]","No","Female","1094727","","","","","","","","132","57","140","17","17","",""
"2833","6","rating","canvas-keyboard-response","379","788738","0.0-11.0-0.184","104","2022-3-22","14:58:34","1","19","[""Asian"",""White""]","No","Female","1094727","","","","","","","","263","30","113","33","40","1",""
"null","null","clear_screen","canvas-keyboard-response","380","788997","0.0-11.0-1.184","104","2022-3-22","14:58:34","1","19","[""Asian"",""White""]","No","Female","1094727","","","","","","","","263","30","113","33","40","",""
"3572","1","rating","canvas-keyboard-response","381","792586","0.0-11.0-0.185","104","2022-3-22","14:58:34","1","19","[""Asian"",""White""]","No","Female","1094727","","","","","","","","96","140","30","10","25","1",""
"null","null","clear_screen","canvas-keyboard-response","382","792847","0.0-11.0-1.185","104","2022-3-22","14:58:34","1","19","[""Asian"",""White""]","No","Female","1094727","","","","","","","","96","140","30","10","25","",""
"3318","7","rating","canvas-keyboard-response","383","796178","0.0-11.0-0.186","104","2022-3-22","14:58:34","1","19","[""Asian"",""White""]","No","Female","1094727","","","","","","","","220","57","85","25","40","1",""
"null","null","clear_screen","canvas-keyboard-response","384","796438","0.0-11.0-1.186","104","2022-3-22","14:58:34","1","19","[""Asian"",""White""]","No","Female","1094727","","","","","","","","220","57","85","25","40","",""
"1623","7","rating","canvas-keyboard-response","385","798074","0.0-11.0-0.187","104","2022-3-22","14:58:34","1","19","[""Asian"",""White""]","No","Female","1094727","","","","","","","","207","30","85","25","40","1",""
"null","null","clear_screen","canvas-keyboard-response","386","798334","0.0-11.0-1.187","104","2022-3-22","14:58:34","1","19","[""Asian"",""White""]","No","Female","1094727","","","","","","","","207","30","85","25","40","",""
"1753","7","rating","canvas-keyboard-response","387","800098","0.0-11.0-0.188","104","2022-3-22","14:58:34","1","19","[""Asian"",""White""]","No","Female","1094727","","","","","","","","34","57","57","10","25","1",""
"null","null","clear_screen","canvas-keyboard-response","388","800357","0.0-11.0-1.188","104","2022-3-22","14:58:34","1","19","[""Asian"",""White""]","No","Female","1094727","","","","","","","","34","57","57","10","25","",""
"2142","4","rating","canvas-keyboard-response","389","802515","0.0-11.0-0.189","104","2022-3-22","14:58:34","1","19","[""Asian"",""White""]","No","Female","1094727","","","","","","","","20","30","30","10","40","1",""
"null","null","clear_screen","canvas-keyboard-response","390","802778","0.0-11.0-1.189","104","2022-3-22","14:58:34","1","19","[""Asian"",""White""]","No","Female","1094727","","","","","","","","20","30","30","10","40","",""
"1824","6","rating","canvas-keyboard-response","391","804618","0.0-11.0-0.190","104","2022-3-22","14:58:34","1","19","[""Asian"",""White""]","No","Female","1094727","","","","","","","","36","57","113","10","25","0",""
"null","null","clear_screen","canvas-keyboard-response","392","804878","0.0-11.0-1.190","104","2022-3-22","14:58:34","1","19","[""Asian"",""White""]","No","Female","1094727","","","","","","","","36","57","113","10","25","",""
"1677","8","rating","canvas-keyboard-response","393","806571","0.0-11.0-0.191","104","2022-3-22","14:58:34","1","19","[""Asian"",""White""]","No","Female","1094727","","","","","","","","298","85","113","40","40","1",""
"null","null","clear_screen","canvas-keyboard-response","394","806831","0.0-11.0-1.191","104","2022-3-22","14:58:34","1","19","[""Asian"",""White""]","No","Female","1094727","","","","","","","","298","85","113","40","40","",""
"3493","4","rating","canvas-keyboard-response","395","810338","0.0-11.0-0.192","104","2022-3-22","14:58:34","1","19","[""Asian"",""White""]","No","Female","1094727","","","","","","","","69","85","140","10","40","0",""
"null","null","clear_screen","canvas-keyboard-response","396","810599","0.0-11.0-1.192","104","2022-3-22","14:58:34","1","19","[""Asian"",""White""]","No","Female","1094727","","","","","","","","69","85","140","10","40","",""
"2984","6","rating","canvas-keyboard-response","397","813595","0.0-11.0-0.193","104","2022-3-22","14:58:34","1","19","[""Asian"",""White""]","No","Female","1094727","","","","","","","","291","30","57","40","40","0",""
"null","null","clear_screen","canvas-keyboard-response","398","813852","0.0-11.0-1.193","104","2022-3-22","14:58:34","1","19","[""Asian"",""White""]","No","Female","1094727","","","","","","","","291","30","57","40","40","",""
"1475","3","rating","canvas-keyboard-response","399","815339","0.0-11.0-0.194","104","2022-3-22","14:58:34","1","19","[""Asian"",""White""]","No","Female","1094727","","","","","","","","12","30","85","10","25","1",""
"null","null","clear_screen","canvas-keyboard-response","400","815598","0.0-11.0-1.194","104","2022-3-22","14:58:34","1","19","[""Asian"",""White""]","No","Female","1094727","","","","","","","","12","30","85","10","25","",""
"1848","2","rating","canvas-keyboard-response","401","817458","0.0-11.0-0.195","104","2022-3-22","14:58:34","1","19","[""Asian"",""White""]","No","Female","1094727","","","","","","","","42","57","140","10","33","1",""
"null","null","clear_screen","canvas-keyboard-response","402","817718","0.0-11.0-1.195","104","2022-3-22","14:58:34","1","19","[""Asian"",""White""]","No","Female","1094727","","","","","","","","42","57","140","10","33","",""
"3261","7","rating","canvas-keyboard-response","403","820994","0.0-11.0-0.196","104","2022-3-22","14:58:34","1","19","[""Asian"",""White""]","No","Female","1094727","","","","","","","","240","113","140","25","33","0",""
"null","null","clear_screen","canvas-keyboard-response","404","821253","0.0-11.0-1.196","104","2022-3-22","14:58:34","1","19","[""Asian"",""White""]","No","Female","1094727","","","","","","","","240","113","140","25","33","",""
"2090","2","rating","canvas-keyboard-response","405","823355","0.0-11.0-0.197","104","2022-3-22","14:58:34","1","19","[""Asian"",""White""]","No","Female","1094727","","","","","","","","10","30","30","10","25","1",""
"null","null","clear_screen","canvas-keyboard-response","406","823617","0.0-11.0-1.197","104","2022-3-22","14:58:34","1","19","[""Asian"",""White""]","No","Female","1094727","","","","","","","","10","30","30","10","25","",""
"4218","2","rating","canvas-keyboard-response","407","827851","0.0-11.0-0.198","104","2022-3-22","14:58:34","1","19","[""Asian"",""White""]","No","Female","1094727","","","","","","","","22","30","85","10","40","1",""
"null","null","clear_screen","canvas-keyboard-response","408","828110","0.0-11.0-1.198","104","2022-3-22","14:58:34","1","19","[""Asian"",""White""]","No","Female","1094727","","","","","","","","22","30","85","10","40","",""
"2048","7","rating","canvas-keyboard-response","409","830170","0.0-11.0-0.199","104","2022-3-22","14:58:34","1","19","[""Asian"",""White""]","No","Female","1094727","","","","","","","","255","140","140","25","40","0",""
"null","null","clear_screen","canvas-keyboard-response","410","830430","0.0-11.0-1.199","104","2022-3-22","14:58:34","1","19","[""Asian"",""White""]","No","Female","1094727","","","","","","","","255","140","140","25","40","",""
"1527","4","rating","canvas-keyboard-response","411","831970","0.0-11.0-0.200","104","2022-3-22","14:58:34","1","19","[""Asian"",""White""]","No","Female","1094727","","","","","","","","84","113","113","10","33","1",""
"null","null","clear_screen","canvas-keyboard-response","412","832234","0.0-11.0-1.200","104","2022-3-22","14:58:34","1","19","[""Asian"",""White""]","No","Female","1094727","","","","","","","","84","113","113","10","33","",""
"2057","3","rating","canvas-keyboard-response","413","834306","0.0-11.0-0.201","104","2022-3-22","14:58:34","1","19","[""Asian"",""White""]","No","Female","1094727","","","","","","","","192","140","57","17","40","1",""
"null","null","clear_screen","canvas-keyboard-response","414","834566","0.0-11.0-1.201","104","2022-3-22","14:58:34","1","19","[""Asian"",""White""]","No","Female","1094727","","","","","","","","192","140","57","17","40","",""
"1927","8","rating","canvas-keyboard-response","415","836506","0.0-11.0-0.202","104","2022-3-22","14:58:34","1","19","[""Asian"",""White""]","No","Female","1094727","","","","","","","","148","85","113","17","17","0",""
"null","null","clear_screen","canvas-keyboard-response","416","836765","0.0-11.0-1.202","104","2022-3-22","14:58:34","1","19","[""Asian"",""White""]","No","Female","1094727","","","","","","","","148","85","113","17","17","",""
"2750","7","rating","canvas-keyboard-response","417","839529","0.0-11.0-0.203","104","2022-3-22","14:58:34","1","19","[""Asian"",""White""]","No","Female","1094727","","","","","","","","214","57","57","25","33","1",""
"null","null","clear_screen","canvas-keyboard-response","418","839793","0.0-11.0-1.203","104","2022-3-22","14:58:34","1","19","[""Asian"",""White""]","No","Female","1094727","","","","","","","","214","57","57","25","33","",""
"1994","7","rating","canvas-keyboard-response","419","841803","0.0-11.0-0.204","104","2022-3-22","14:58:34","1","19","[""Asian"",""White""]","No","Female","1094727","","","","","","","","141","57","113","17","33","1",""
"null","null","clear_screen","canvas-keyboard-response","420","842068","0.0-11.0-1.204","104","2022-3-22","14:58:34","1","19","[""Asian"",""White""]","No","Female","1094727","","","","","","","","141","57","113","17","33","",""
"1826","7","rating","canvas-keyboard-response","421","843906","0.0-11.0-0.205","104","2022-3-22","14:58:34","1","19","[""Asian"",""White""]","No","Female","1094727","","","","","","","","197","30","85","25","25","1",""
"null","null","clear_screen","canvas-keyboard-response","422","844166","0.0-11.0-1.205","104","2022-3-22","14:58:34","1","19","[""Asian"",""White""]","No","Female","1094727","","","","","","","","197","30","85","25","25","",""
"1181","7","rating","canvas-keyboard-response","423","845363","0.0-11.0-0.206","104","2022-3-22","14:58:34","1","19","[""Asian"",""White""]","No","Female","1094727","","","","","","","","205","30","30","25","40","1",""
"null","null","clear_screen","canvas-keyboard-response","424","845625","0.0-11.0-1.206","104","2022-3-22","14:58:34","1","19","[""Asian"",""White""]","No","Female","1094727","","","","","","","","205","30","30","25","40","",""
"4159","5","rating","canvas-keyboard-response","425","849794","0.0-11.0-0.207","104","2022-3-22","14:58:34","1","19","[""Asian"",""White""]","No","Female","1094727","","","","","","","","198","30","113","25","25","1",""
"null","null","clear_screen","canvas-keyboard-response","426","850056","0.0-11.0-1.207","104","2022-3-22","14:58:34","1","19","[""Asian"",""White""]","No","Female","1094727","","","","","","","","198","30","113","25","25","",""
"2330","5","rating","canvas-keyboard-response","427","852402","0.0-11.0-0.208","104","2022-3-22","14:58:34","1","19","[""Asian"",""White""]","No","Female","1094727","","","","","","","","123","30","113","17","33","0",""
"null","null","clear_screen","canvas-keyboard-response","428","852661","0.0-11.0-1.208","104","2022-3-22","14:58:34","1","19","[""Asian"",""White""]","No","Female","1094727","","","","","","","","123","30","113","17","33","",""
"9344","9","rating","canvas-keyboard-response","429","862019","0.0-11.0-0.209","104","2022-3-22","14:58:34","1","19","[""Asian"",""White""]","No","Female","1094727","","","","","","","","260","30","30","33","40","0",""
"null","null","clear_screen","canvas-keyboard-response","430","862279","0.0-11.0-1.209","104","2022-3-22","14:58:34","1","19","[""Asian"",""White""]","No","Female","1094727","","","","","","","","260","30","30","33","40","",""
"2263","7","rating","canvas-keyboard-response","431","864554","0.0-11.0-0.210","104","2022-3-22","14:58:34","1","19","[""Asian"",""White""]","No","Female","1094727","","","","","","","","190","140","140","17","33","1",""
"null","null","clear_screen","canvas-keyboard-response","432","864815","0.0-11.0-1.210","104","2022-3-22","14:58:34","1","19","[""Asian"",""White""]","No","Female","1094727","","","","","","","","190","140","140","17","33","",""
"4606","6","rating","canvas-keyboard-response","433","869434","0.0-11.0-0.211","104","2022-3-22","14:58:34","1","19","[""Asian"",""White""]","No","Female","1094727","","","","","","","","83","113","85","10","33","0",""
"null","null","clear_screen","canvas-keyboard-response","434","869693","0.0-11.0-1.211","104","2022-3-22","14:58:34","1","19","[""Asian"",""White""]","No","Female","1094727","","","","","","","","83","113","85","10","33","",""
"3848","5","rating","canvas-keyboard-response","435","873556","0.0-11.0-0.212","104","2022-3-22","14:58:34","1","19","[""Asian"",""White""]","No","Female","1094727","","","","","","","","78","113","85","10","25","1",""
"null","null","clear_screen","canvas-keyboard-response","436","873815","0.0-11.0-1.212","104","2022-3-22","14:58:34","1","19","[""Asian"",""White""]","No","Female","1094727","","","","","","","","78","113","85","10","25","",""
"1258","4","rating","canvas-keyboard-response","437","875081","0.0-11.0-0.213","104","2022-3-22","14:58:34","1","19","[""Asian"",""White""]","No","Female","1094727","","","","","","","","17","30","85","10","33","0",""
"null","null","clear_screen","canvas-keyboard-response","438","875342","0.0-11.0-1.213","104","2022-3-22","14:58:34","1","19","[""Asian"",""White""]","No","Female","1094727","","","","","","","","17","30","85","10","33","",""
"3013","5","rating","canvas-keyboard-response","439","878371","0.0-11.0-0.214","104","2022-3-22","14:58:34","1","19","[""Asian"",""White""]","No","Female","1094727","","","","","","","","294","30","140","40","40","0",""
"null","null","clear_screen","canvas-keyboard-response","440","878630","0.0-11.0-1.214","104","2022-3-22","14:58:34","1","19","[""Asian"",""White""]","No","Female","1094727","","","","","","","","294","30","140","40","40","",""
"3186","7","rating","canvas-keyboard-response","441","881828","0.0-11.0-0.215","104","2022-3-22","14:58:34","1","19","[""Asian"",""White""]","No","Female","1094727","","","","","","","","115","30","30","17","25","1",""
"null","null","clear_screen","canvas-keyboard-response","442","882091","0.0-11.0-1.215","104","2022-3-22","14:58:34","1","19","[""Asian"",""White""]","No","Female","1094727","","","","","","","","115","30","30","17","25","",""
