"rt","response","trialType","trial_type","trial_index","time_elapsed","internal_node_id","sub_n","date","time","leftRight","age","race","ethnicity","gender","exp_duration","success","timeout","failed_images","failed_audio","failed_video","stimulus","view_history","trialID","radius_a","radius_b","angle_a","angle_b","lrCond","question_order"
"2221","{""response"":""113""}","enter-sub-number","survey-html-form","0","2246","0.0-0.0","113","2022-3-30","13:40:39","0","18","[""White""]","No","Female","4222398","","","","","","","","","","","","","",""
"","","","fullscreen","1","4104","0.0-1.0","113","2022-3-30","13:40:39","0","18","[""White""]","No","Female","4222398","true","","","","","","","","","","","","",""
"","","","preload","2","4135","0.0-2.0","113","2022-3-30","13:40:39","0","18","[""White""]","No","Female","4222398","true","false","[]","[]","[]","","","","","","","","",""
"3030243","0","","html-button-response","3","3034380","0.0-3.0","113","2022-3-30","13:40:39","0","18","[""White""]","No","Female","4222398","","","","","","<div style= ""font-size:25px;"" <p> <strong> Welcome to the experiment! </strong><br> <p style=""color:#8B0000; font-size:25px;""><strong> Please do NOT exit full screen until you are done with the experiment. </strong> </p><p style=""font-size:25px;color:#8B0000;""> <strong> The experiment will be canceled and your data will be lost <br> if you try to go back or refresh the page at any point during the experiment.</strong> </p><br><p> <strong> Thanks in advance for your contribution to our research! </strong></p>","","","","","","","",""
"65804","","","instructions","4","3100187","0.0-4.0","113","2022-3-30","13:40:39","0","18","[""White""]","No","Female","4222398","","","","","","","[{""page_index"":0,""viewing_time"":9202},{""page_index"":1,""viewing_time"":31672},{""page_index"":2,""viewing_time"":4673},{""page_index"":1,""viewing_time"":5104},{""page_index"":0,""viewing_time"":4160},{""page_index"":1,""viewing_time"":3312},{""page_index"":2,""viewing_time"":7681}]","","","","","","",""
"null","null","presentPop","canvas-keyboard-response","5","3116202","0.0-5.0","113","2022-3-30","13:40:39","0","18","[""White""]","No","Female","4222398","","","","","","","","","","","","","",""
"null","null","clear_screen","canvas-keyboard-response","6","3116964","0.0-6.0","113","2022-3-30","13:40:39","0","18","[""White""]","No","Female","4222398","","","","","","","","","","","","","",""
"4638","","","instructions","7","3121603","0.0-7.0","113","2022-3-30","13:40:39","0","18","[""White""]","No","Female","4222398","","","","","","","[{""page_index"":0,""viewing_time"":4638}]","","","","","","",""
"null","null","presentPop","canvas-keyboard-response","8","3137616","0.0-8.0","113","2022-3-30","13:40:39","0","18","[""White""]","No","Female","4222398","","","","","","","","","","","","","",""
"null","null","clear_screen","canvas-keyboard-response","9","3138376","0.0-9.0","113","2022-3-30","13:40:39","0","18","[""White""]","No","Female","4222398","","","","","","","","","","","","","",""
"17561","","","instructions","10","3155939","0.0-10.0","113","2022-3-30","13:40:39","0","18","[""White""]","No","Female","4222398","","","","","","","[{""page_index"":0,""viewing_time"":3984},{""page_index"":1,""viewing_time"":13577}]","","","","","","",""
"8143","8","rating","canvas-keyboard-response","11","3165096","0.0-11.0-0.0","113","2022-3-30","13:40:39","0","18","[""White""]","No","Female","4222398","","","","","","","","105","140","140","10","33","1",""
"null","null","clear_screen","canvas-keyboard-response","12","3165356","0.0-11.0-1.0","113","2022-3-30","13:40:39","0","18","[""White""]","No","Female","4222398","","","","","","","","105","140","140","10","33","",""
"11313","6","rating","canvas-keyboard-response","13","3176680","0.0-11.0-0.1","113","2022-3-30","13:40:39","0","18","[""White""]","No","Female","4222398","","","","","","","","236","113","30","25","33","1",""
"null","null","clear_screen","canvas-keyboard-response","14","3176940","0.0-11.0-1.1","113","2022-3-30","13:40:39","0","18","[""White""]","No","Female","4222398","","","","","","","","236","113","30","25","33","",""
"8389","5","rating","canvas-keyboard-response","15","3185345","0.0-11.0-0.2","113","2022-3-30","13:40:39","0","18","[""White""]","No","Female","4222398","","","","","","","","3","30","113","10","10","1",""
"null","null","clear_screen","canvas-keyboard-response","16","3185604","0.0-11.0-1.2","113","2022-3-30","13:40:39","0","18","[""White""]","No","Female","4222398","","","","","","","","3","30","113","10","10","",""
"5105","2","rating","canvas-keyboard-response","17","3190721","0.0-11.0-0.3","113","2022-3-30","13:40:39","0","18","[""White""]","No","Female","4222398","","","","","","","","86","113","30","10","40","0",""
"null","null","clear_screen","canvas-keyboard-response","18","3190981","0.0-11.0-1.3","113","2022-3-30","13:40:39","0","18","[""White""]","No","Female","4222398","","","","","","","","86","113","30","10","40","",""
"3753","7","rating","canvas-keyboard-response","19","3194744","0.0-11.0-0.4","113","2022-3-30","13:40:39","0","18","[""White""]","No","Female","4222398","","","","","","","","34","57","57","10","25","1",""
"null","null","clear_screen","canvas-keyboard-response","20","3195004","0.0-11.0-1.4","113","2022-3-30","13:40:39","0","18","[""White""]","No","Female","4222398","","","","","","","","34","57","57","10","25","",""
"3930","5","rating","canvas-keyboard-response","21","3198944","0.0-11.0-0.5","113","2022-3-30","13:40:39","0","18","[""White""]","No","Female","4222398","","","","","","","","46","57","113","10","40","1",""
"null","null","clear_screen","canvas-keyboard-response","22","3199203","0.0-11.0-1.5","113","2022-3-30","13:40:39","0","18","[""White""]","No","Female","4222398","","","","","","","","46","57","113","10","40","",""
"4442","3","rating","canvas-keyboard-response","23","3203656","0.0-11.0-0.6","113","2022-3-30","13:40:39","0","18","[""White""]","No","Female","4222398","","","","","","","","137","57","140","17","25","0",""
"null","null","clear_screen","canvas-keyboard-response","24","3203915","0.0-11.0-1.6","113","2022-3-30","13:40:39","0","18","[""White""]","No","Female","4222398","","","","","","","","137","57","140","17","25","",""
"5306","6","rating","canvas-keyboard-response","25","3209232","0.0-11.0-0.7","113","2022-3-30","13:40:39","0","18","[""White""]","No","Female","4222398","","","","","","","","6","30","57","10","17","1",""
"null","null","clear_screen","canvas-keyboard-response","26","3209492","0.0-11.0-1.7","113","2022-3-30","13:40:39","0","18","[""White""]","No","Female","4222398","","","","","","","","6","30","57","10","17","",""
"2231","5","rating","canvas-keyboard-response","27","3211735","0.0-11.0-0.8","113","2022-3-30","13:40:39","0","18","[""White""]","No","Female","4222398","","","","","","","","2","30","85","10","10","1",""
"null","null","clear_screen","canvas-keyboard-response","28","3211995","0.0-11.0-1.8","113","2022-3-30","13:40:39","0","18","[""White""]","No","Female","4222398","","","","","","","","2","30","85","10","10","",""
"4235","5","rating","canvas-keyboard-response","29","3216240","0.0-11.0-0.9","113","2022-3-30","13:40:39","0","18","[""White""]","No","Female","4222398","","","","","","","","126","30","57","17","40","1",""
"null","null","clear_screen","canvas-keyboard-response","30","3216501","0.0-11.0-1.9","113","2022-3-30","13:40:39","0","18","[""White""]","No","Female","4222398","","","","","","","","126","30","57","17","40","",""
"3775","4","rating","canvas-keyboard-response","31","3220288","0.0-11.0-0.10","113","2022-3-30","13:40:39","0","18","[""White""]","No","Female","4222398","","","","","","","","55","85","30","10","25","1",""
"null","null","clear_screen","canvas-keyboard-response","32","3220547","0.0-11.0-1.10","113","2022-3-30","13:40:39","0","18","[""White""]","No","Female","4222398","","","","","","","","55","85","30","10","25","",""
"2073","5","rating","canvas-keyboard-response","33","3222632","0.0-11.0-0.11","113","2022-3-30","13:40:39","0","18","[""White""]","No","Female","4222398","","","","","","","","123","30","113","17","33","1",""
"null","null","clear_screen","canvas-keyboard-response","34","3222890","0.0-11.0-1.11","113","2022-3-30","13:40:39","0","18","[""White""]","No","Female","4222398","","","","","","","","123","30","113","17","33","",""
"3475","2","rating","canvas-keyboard-response","35","3226376","0.0-11.0-0.12","113","2022-3-30","13:40:39","0","18","[""White""]","No","Female","4222398","","","","","","","","107","140","57","10","40","1",""
"null","null","clear_screen","canvas-keyboard-response","36","3226634","0.0-11.0-1.12","113","2022-3-30","13:40:39","0","18","[""White""]","No","Female","4222398","","","","","","","","107","140","57","10","40","",""
"4305","6","rating","canvas-keyboard-response","37","3230952","0.0-11.0-0.13","113","2022-3-30","13:40:39","0","18","[""White""]","No","Female","4222398","","","","","","","","254","140","113","25","40","0",""
"null","null","clear_screen","canvas-keyboard-response","38","3231210","0.0-11.0-1.13","113","2022-3-30","13:40:39","0","18","[""White""]","No","Female","4222398","","","","","","","","254","140","113","25","40","",""
"11546","7","rating","canvas-keyboard-response","39","3242768","0.0-11.0-0.14","113","2022-3-30","13:40:39","0","18","[""White""]","No","Female","4222398","","","","","","","","73","113","85","10","17","0",""
"null","null","clear_screen","canvas-keyboard-response","40","3243029","0.0-11.0-1.14","113","2022-3-30","13:40:39","0","18","[""White""]","No","Female","4222398","","","","","","","","73","113","85","10","17","",""
"2293","5","rating","canvas-keyboard-response","41","3245336","0.0-11.0-0.15","113","2022-3-30","13:40:39","0","18","[""White""]","No","Female","4222398","","","","","","","","164","85","140","17","40","0",""
"null","null","clear_screen","canvas-keyboard-response","42","3245596","0.0-11.0-1.15","113","2022-3-30","13:40:39","0","18","[""White""]","No","Female","4222398","","","","","","","","164","85","140","17","40","",""
"2241","5","rating","canvas-keyboard-response","43","3247848","0.0-11.0-0.16","113","2022-3-30","13:40:39","0","18","[""White""]","No","Female","4222398","","","","","","","","161","85","57","17","40","0",""
"null","null","clear_screen","canvas-keyboard-response","44","3248107","0.0-11.0-1.16","113","2022-3-30","13:40:39","0","18","[""White""]","No","Female","4222398","","","","","","","","161","85","57","17","40","",""
"8529","4","rating","canvas-keyboard-response","45","3256648","0.0-11.0-0.17","113","2022-3-30","13:40:39","0","18","[""White""]","No","Female","4222398","","","","","","","","180","113","140","17","40","0",""
"null","null","clear_screen","canvas-keyboard-response","46","3256907","0.0-11.0-1.17","113","2022-3-30","13:40:39","0","18","[""White""]","No","Female","4222398","","","","","","","","180","113","140","17","40","",""
"2205","5","rating","canvas-keyboard-response","47","3259128","0.0-11.0-0.18","113","2022-3-30","13:40:39","0","18","[""White""]","No","Female","4222398","","","","","","","","90","113","140","10","40","0",""
"null","null","clear_screen","canvas-keyboard-response","48","3259389","0.0-11.0-1.18","113","2022-3-30","13:40:39","0","18","[""White""]","No","Female","4222398","","","","","","","","90","113","140","10","40","",""
"7021","5","rating","canvas-keyboard-response","49","3266424","0.0-11.0-0.19","113","2022-3-30","13:40:39","0","18","[""White""]","No","Female","4222398","","","","","","","","228","85","113","25","33","1",""
"null","null","clear_screen","canvas-keyboard-response","50","3266683","0.0-11.0-1.19","113","2022-3-30","13:40:39","0","18","[""White""]","No","Female","4222398","","","","","","","","228","85","113","25","33","",""
"3240","6","rating","canvas-keyboard-response","51","3269935","0.0-11.0-0.20","113","2022-3-30","13:40:39","0","18","[""White""]","No","Female","4222398","","","","","","","","185","140","140","17","25","1",""
"null","null","clear_screen","canvas-keyboard-response","52","3270195","0.0-11.0-1.20","113","2022-3-30","13:40:39","0","18","[""White""]","No","Female","4222398","","","","","","","","185","140","140","17","25","",""
"3696","6","rating","canvas-keyboard-response","53","3273903","0.0-11.0-0.21","113","2022-3-30","13:40:39","0","18","[""White""]","No","Female","4222398","","","","","","","","63","85","113","10","33","0",""
"null","null","clear_screen","canvas-keyboard-response","54","3274163","0.0-11.0-1.21","113","2022-3-30","13:40:39","0","18","[""White""]","No","Female","4222398","","","","","","","","63","85","113","10","33","",""
"6472","1","rating","canvas-keyboard-response","55","3280648","0.0-11.0-0.22","113","2022-3-30","13:40:39","0","18","[""White""]","No","Female","4222398","","","","","","","","251","140","30","25","40","1",""
"null","null","clear_screen","canvas-keyboard-response","56","3280907","0.0-11.0-1.22","113","2022-3-30","13:40:39","0","18","[""White""]","No","Female","4222398","","","","","","","","251","140","30","25","40","",""
"1610","1","rating","canvas-keyboard-response","57","3282527","0.0-11.0-0.23","113","2022-3-30","13:40:39","0","18","[""White""]","No","Female","4222398","","","","","","","","262","30","85","33","40","0",""
"null","null","clear_screen","canvas-keyboard-response","58","3282786","0.0-11.0-1.23","113","2022-3-30","13:40:39","0","18","[""White""]","No","Female","4222398","","","","","","","","262","30","85","33","40","",""
"3514","8","rating","canvas-keyboard-response","59","3286312","0.0-11.0-0.24","113","2022-3-30","13:40:39","0","18","[""White""]","No","Female","4222398","","","","","","","","48","85","113","10","10","1",""
"null","null","clear_screen","canvas-keyboard-response","60","3286575","0.0-11.0-1.24","113","2022-3-30","13:40:39","0","18","[""White""]","No","Female","4222398","","","","","","","","48","85","113","10","10","",""
"1854","6","rating","canvas-keyboard-response","61","3288439","0.0-11.0-0.25","113","2022-3-30","13:40:39","0","18","[""White""]","No","Female","4222398","","","","","","","","168","113","85","17","25","1",""
"null","null","clear_screen","canvas-keyboard-response","62","3288698","0.0-11.0-1.25","113","2022-3-30","13:40:39","0","18","[""White""]","No","Female","4222398","","","","","","","","168","113","85","17","25","",""
"1393","5","rating","canvas-keyboard-response","63","3290103","0.0-11.0-0.26","113","2022-3-30","13:40:39","0","18","[""White""]","No","Female","4222398","","","","","","","","80","113","140","10","25","0",""
"null","null","clear_screen","canvas-keyboard-response","64","3290362","0.0-11.0-1.26","113","2022-3-30","13:40:39","0","18","[""White""]","No","Female","4222398","","","","","","","","80","113","140","10","25","",""
"1913","7","rating","canvas-keyboard-response","65","3292287","0.0-11.0-0.27","113","2022-3-30","13:40:39","0","18","[""White""]","No","Female","4222398","","","","","","","","184","140","113","17","25","0",""
"null","null","clear_screen","canvas-keyboard-response","66","3292545","0.0-11.0-1.27","113","2022-3-30","13:40:39","0","18","[""White""]","No","Female","4222398","","","","","","","","184","140","113","17","25","",""
"1682","6","rating","canvas-keyboard-response","67","3294239","0.0-11.0-0.28","113","2022-3-30","13:40:39","0","18","[""White""]","No","Female","4222398","","","","","","","","54","85","140","10","17","1",""
"null","null","clear_screen","canvas-keyboard-response","68","3294498","0.0-11.0-1.28","113","2022-3-30","13:40:39","0","18","[""White""]","No","Female","4222398","","","","","","","","54","85","140","10","17","",""
"1474","4","rating","canvas-keyboard-response","69","3295983","0.0-11.0-0.29","113","2022-3-30","13:40:39","0","18","[""White""]","No","Female","4222398","","","","","","","","222","57","140","25","40","0",""
"null","null","clear_screen","canvas-keyboard-response","70","3296243","0.0-11.0-1.29","113","2022-3-30","13:40:39","0","18","[""White""]","No","Female","4222398","","","","","","","","222","57","140","25","40","",""
"3657","5","rating","canvas-keyboard-response","71","3299911","0.0-11.0-0.30","113","2022-3-30","13:40:39","0","18","[""White""]","No","Female","4222398","","","","","","","","131","57","113","17","17","0",""
"null","null","clear_screen","canvas-keyboard-response","72","3300171","0.0-11.0-1.30","113","2022-3-30","13:40:39","0","18","[""White""]","No","Female","4222398","","","","","","","","131","57","113","17","17","",""
"6666","5","rating","canvas-keyboard-response","73","3306848","0.0-11.0-0.31","113","2022-3-30","13:40:39","0","18","[""White""]","No","Female","4222398","","","","","","","","234","85","140","25","40","1",""
"null","null","clear_screen","canvas-keyboard-response","74","3307110","0.0-11.0-1.31","113","2022-3-30","13:40:39","0","18","[""White""]","No","Female","4222398","","","","","","","","234","85","140","25","40","",""
"5180","5","rating","canvas-keyboard-response","75","3312303","0.0-11.0-0.32","113","2022-3-30","13:40:39","0","18","[""White""]","No","Female","4222398","","","","","","","","221","57","113","25","40","0",""
"null","null","clear_screen","canvas-keyboard-response","76","3312563","0.0-11.0-1.32","113","2022-3-30","13:40:39","0","18","[""White""]","No","Female","4222398","","","","","","","","221","57","113","25","40","",""
"7031","9","rating","canvas-keyboard-response","77","3319608","0.0-11.0-0.33","113","2022-3-30","13:40:39","0","18","[""White""]","No","Female","4222398","","","","","","","","277","85","85","33","40","1",""
"null","null","clear_screen","canvas-keyboard-response","78","3319867","0.0-11.0-1.33","113","2022-3-30","13:40:39","0","18","[""White""]","No","Female","4222398","","","","","","","","277","85","85","33","40","",""
"8055","3","rating","canvas-keyboard-response","79","3327935","0.0-11.0-0.34","113","2022-3-30","13:40:39","0","18","[""White""]","No","Female","4222398","","","","","","","","241","113","30","25","40","0",""
"null","null","clear_screen","canvas-keyboard-response","80","3328197","0.0-11.0-1.34","113","2022-3-30","13:40:39","0","18","[""White""]","No","Female","4222398","","","","","","","","241","113","30","25","40","",""
"4671","3","rating","canvas-keyboard-response","81","3332879","0.0-11.0-0.35","113","2022-3-30","13:40:39","0","18","[""White""]","No","Female","4222398","","","","","","","","32","57","140","10","17","1",""
"null","null","clear_screen","canvas-keyboard-response","82","3333139","0.0-11.0-1.35","113","2022-3-30","13:40:39","0","18","[""White""]","No","Female","4222398","","","","","","","","32","57","140","10","17","",""
"2264","6","rating","canvas-keyboard-response","83","3335416","0.0-11.0-0.36","113","2022-3-30","13:40:39","0","18","[""White""]","No","Female","4222398","","","","","","","","62","85","85","10","33","0",""
"null","null","clear_screen","canvas-keyboard-response","84","3335675","0.0-11.0-1.36","113","2022-3-30","13:40:39","0","18","[""White""]","No","Female","4222398","","","","","","","","62","85","85","10","33","",""
"4272","4","rating","canvas-keyboard-response","85","3339959","0.0-11.0-0.37","113","2022-3-30","13:40:39","0","18","[""White""]","No","Female","4222398","","","","","","","","202","30","85","25","33","1",""
"null","null","clear_screen","canvas-keyboard-response","86","3340219","0.0-11.0-1.37","113","2022-3-30","13:40:39","0","18","[""White""]","No","Female","4222398","","","","","","","","202","30","85","25","33","",""
"4529","9","rating","canvas-keyboard-response","87","3344758","0.0-11.0-0.38","113","2022-3-30","13:40:39","0","18","[""White""]","No","Female","4222398","","","","","","","","284","113","113","33","40","0",""
"null","null","clear_screen","canvas-keyboard-response","88","3345020","0.0-11.0-1.38","113","2022-3-30","13:40:39","0","18","[""White""]","No","Female","4222398","","","","","","","","284","113","113","33","40","",""
"2591","3","rating","canvas-keyboard-response","89","3347623","0.0-11.0-0.39","113","2022-3-30","13:40:39","0","18","[""White""]","No","Female","4222398","","","","","","","","14","30","140","10","25","0",""
"null","null","clear_screen","canvas-keyboard-response","90","3347882","0.0-11.0-1.39","113","2022-3-30","13:40:39","0","18","[""White""]","No","Female","4222398","","","","","","","","14","30","140","10","25","",""
"1075","2","rating","canvas-keyboard-response","91","3348967","0.0-11.0-0.40","113","2022-3-30","13:40:39","0","18","[""White""]","No","Female","4222398","","","","","","","","76","113","30","10","25","0",""
"null","null","clear_screen","canvas-keyboard-response","92","3349227","0.0-11.0-1.40","113","2022-3-30","13:40:39","0","18","[""White""]","No","Female","4222398","","","","","","","","76","113","30","10","25","",""
"2126","6","rating","canvas-keyboard-response","93","3351367","0.0-11.0-0.41","113","2022-3-30","13:40:39","0","18","[""White""]","No","Female","4222398","","","","","","","","11","30","57","10","25","0",""
"null","null","clear_screen","canvas-keyboard-response","94","3351627","0.0-11.0-1.41","113","2022-3-30","13:40:39","0","18","[""White""]","No","Female","4222398","","","","","","","","11","30","57","10","25","",""
"2136","7","rating","canvas-keyboard-response","95","3353775","0.0-11.0-0.42","113","2022-3-30","13:40:39","0","18","[""White""]","No","Female","4222398","","","","","","","","179","113","113","17","40","1",""
"null","null","clear_screen","canvas-keyboard-response","96","3354033","0.0-11.0-1.42","113","2022-3-30","13:40:39","0","18","[""White""]","No","Female","4222398","","","","","","","","179","113","113","17","40","",""
"1514","4","rating","canvas-keyboard-response","97","3355559","0.0-11.0-0.43","113","2022-3-30","13:40:39","0","18","[""White""]","No","Female","4222398","","","","","","","","252","140","57","25","40","0",""
"null","null","clear_screen","canvas-keyboard-response","98","3355818","0.0-11.0-1.43","113","2022-3-30","13:40:39","0","18","[""White""]","No","Female","4222398","","","","","","","","252","140","57","25","40","",""
"2723","6","rating","canvas-keyboard-response","99","3358551","0.0-11.0-0.44","113","2022-3-30","13:40:39","0","18","[""White""]","No","Female","4222398","","","","","","","","26","57","113","10","10","1",""
"null","null","clear_screen","canvas-keyboard-response","100","3358810","0.0-11.0-1.44","113","2022-3-30","13:40:39","0","18","[""White""]","No","Female","4222398","","","","","","","","26","57","113","10","10","",""
"19794","4","rating","canvas-keyboard-response","101","3378615","0.0-11.0-0.45","113","2022-3-30","13:40:39","0","18","[""White""]","No","Female","4222398","","","","","","","","207","30","85","25","40","1",""
"null","null","clear_screen","canvas-keyboard-response","102","3378874","0.0-11.0-1.45","113","2022-3-30","13:40:39","0","18","[""White""]","No","Female","4222398","","","","","","","","207","30","85","25","40","",""
"2370","4","rating","canvas-keyboard-response","103","3381256","0.0-11.0-0.46","113","2022-3-30","13:40:39","0","18","[""White""]","No","Female","4222398","","","","","","","","50","85","30","10","17","0",""
"null","null","clear_screen","canvas-keyboard-response","104","3381517","0.0-11.0-1.46","113","2022-3-30","13:40:39","0","18","[""White""]","No","Female","4222398","","","","","","","","50","85","30","10","17","",""
"4131","7","rating","canvas-keyboard-response","105","3385663","0.0-11.0-0.47","113","2022-3-30","13:40:39","0","18","[""White""]","No","Female","4222398","","","","","","","","151","85","57","17","25","0",""
"null","null","clear_screen","canvas-keyboard-response","106","3385922","0.0-11.0-1.47","113","2022-3-30","13:40:39","0","18","[""White""]","No","Female","4222398","","","","","","","","151","85","57","17","25","",""
"1889","6","rating","canvas-keyboard-response","107","3387824","0.0-11.0-0.48","113","2022-3-30","13:40:39","0","18","[""White""]","No","Female","4222398","","","","","","","","163","85","113","17","40","0",""
"null","null","clear_screen","canvas-keyboard-response","108","3388083","0.0-11.0-1.48","113","2022-3-30","13:40:39","0","18","[""White""]","No","Female","4222398","","","","","","","","163","85","113","17","40","",""
"6424","9","rating","canvas-keyboard-response","109","3394518","0.0-11.0-0.49","113","2022-3-30","13:40:39","0","18","[""White""]","No","Female","4222398","","","","","","","","120","30","30","17","33","1",""
"null","null","clear_screen","canvas-keyboard-response","110","3394778","0.0-11.0-1.49","113","2022-3-30","13:40:39","0","18","[""White""]","No","Female","4222398","","","","","","","","120","30","30","17","33","",""
"953","9","rating","canvas-keyboard-response","111","3395744","0.0-11.0-0.50","113","2022-3-30","13:40:39","0","18","[""White""]","No","Female","4222398","","","","","","","","134","57","57","17","25","0",""
"null","null","clear_screen","canvas-keyboard-response","112","3396002","0.0-11.0-1.50","113","2022-3-30","13:40:39","0","18","[""White""]","No","Female","4222398","","","","","","","","134","57","57","17","25","",""
"1473","8","rating","canvas-keyboard-response","113","3397487","0.0-11.0-0.51","113","2022-3-30","13:40:39","0","18","[""White""]","No","Female","4222398","","","","","","","","238","113","85","25","33","1",""
"null","null","clear_screen","canvas-keyboard-response","114","3397748","0.0-11.0-1.51","113","2022-3-30","13:40:39","0","18","[""White""]","No","Female","4222398","","","","","","","","238","113","85","25","33","",""
"1447","9","rating","canvas-keyboard-response","115","3399206","0.0-11.0-0.52","113","2022-3-30","13:40:39","0","18","[""White""]","No","Female","4222398","","","","","","","","298","85","113","40","40","1",""
"null","null","clear_screen","canvas-keyboard-response","116","3399465","0.0-11.0-1.52","113","2022-3-30","13:40:39","0","18","[""White""]","No","Female","4222398","","","","","","","","298","85","113","40","40","",""
"1650","6","rating","canvas-keyboard-response","117","3401127","0.0-11.0-0.53","113","2022-3-30","13:40:39","0","18","[""White""]","No","Female","4222398","","","","","","","","58","85","113","10","25","0",""
"null","null","clear_screen","canvas-keyboard-response","118","3401387","0.0-11.0-1.53","113","2022-3-30","13:40:39","0","18","[""White""]","No","Female","4222398","","","","","","","","58","85","113","10","25","",""
"1305","4","rating","canvas-keyboard-response","119","3402703","0.0-11.0-0.54","113","2022-3-30","13:40:39","0","18","[""White""]","No","Female","4222398","","","","","","","","41","57","113","10","33","0",""
"null","null","clear_screen","canvas-keyboard-response","120","3402962","0.0-11.0-1.54","113","2022-3-30","13:40:39","0","18","[""White""]","No","Female","4222398","","","","","","","","41","57","113","10","33","",""
"1625","1","rating","canvas-keyboard-response","121","3404599","0.0-11.0-0.55","113","2022-3-30","13:40:39","0","18","[""White""]","No","Female","4222398","","","","","","","","8","30","113","10","17","0",""
"null","null","clear_screen","canvas-keyboard-response","122","3404858","0.0-11.0-1.55","113","2022-3-30","13:40:39","0","18","[""White""]","No","Female","4222398","","","","","","","","8","30","113","10","17","",""
"1705","8","rating","canvas-keyboard-response","123","3406575","0.0-11.0-0.56","113","2022-3-30","13:40:39","0","18","[""White""]","No","Female","4222398","","","","","","","","85","113","140","10","33","1",""
"null","null","clear_screen","canvas-keyboard-response","124","3406834","0.0-11.0-1.56","113","2022-3-30","13:40:39","0","18","[""White""]","No","Female","4222398","","","","","","","","85","113","140","10","33","",""
"1744","4","rating","canvas-keyboard-response","125","3408591","0.0-11.0-0.57","113","2022-3-30","13:40:39","0","18","[""White""]","No","Female","4222398","","","","","","","","33","57","30","10","25","1",""
"null","null","clear_screen","canvas-keyboard-response","126","3408850","0.0-11.0-1.57","113","2022-3-30","13:40:39","0","18","[""White""]","No","Female","4222398","","","","","","","","33","57","30","10","25","",""
"3930","7","rating","canvas-keyboard-response","127","3412790","0.0-11.0-0.58","113","2022-3-30","13:40:39","0","18","[""White""]","No","Female","4222398","","","","","","","","190","140","140","17","33","0",""
"null","null","clear_screen","canvas-keyboard-response","128","3413049","0.0-11.0-1.58","113","2022-3-30","13:40:39","0","18","[""White""]","No","Female","4222398","","","","","","","","190","140","140","17","33","",""
"5738","7","rating","canvas-keyboard-response","129","3418798","0.0-11.0-0.59","113","2022-3-30","13:40:39","0","18","[""White""]","No","Female","4222398","","","","","","","","30","57","85","10","17","1",""
"null","null","clear_screen","canvas-keyboard-response","130","3419058","0.0-11.0-1.59","113","2022-3-30","13:40:39","0","18","[""White""]","No","Female","4222398","","","","","","","","30","57","85","10","17","",""
"2418","1","rating","canvas-keyboard-response","131","3421486","0.0-11.0-0.60","113","2022-3-30","13:40:39","0","18","[""White""]","No","Female","4222398","","","","","","","","209","30","140","25","40","0",""
"null","null","clear_screen","canvas-keyboard-response","132","3421745","0.0-11.0-1.60","113","2022-3-30","13:40:39","0","18","[""White""]","No","Female","4222398","","","","","","","","209","30","140","25","40","",""
"1986","4","rating","canvas-keyboard-response","133","3423742","0.0-11.0-0.61","113","2022-3-30","13:40:39","0","18","[""White""]","No","Female","4222398","","","","","","","","223","85","113","25","25","1",""
"null","null","clear_screen","canvas-keyboard-response","134","3424002","0.0-11.0-1.61","113","2022-3-30","13:40:39","0","18","[""White""]","No","Female","4222398","","","","","","","","223","85","113","25","25","",""
"3946","6","rating","canvas-keyboard-response","135","3427959","0.0-11.0-0.62","113","2022-3-30","13:40:39","0","18","[""White""]","No","Female","4222398","","","","","","","","111","30","57","17","17","1",""
"null","null","clear_screen","canvas-keyboard-response","136","3428218","0.0-11.0-1.62","113","2022-3-30","13:40:39","0","18","[""White""]","No","Female","4222398","","","","","","","","111","30","57","17","17","",""
"6410","4","rating","canvas-keyboard-response","137","3434638","0.0-11.0-0.63","113","2022-3-30","13:40:39","0","18","[""White""]","No","Female","4222398","","","","","","","","287","140","57","33","40","0",""
"null","null","clear_screen","canvas-keyboard-response","138","3434897","0.0-11.0-1.63","113","2022-3-30","13:40:39","0","18","[""White""]","No","Female","4222398","","","","","","","","287","140","57","33","40","",""
"3426","6","rating","canvas-keyboard-response","139","3438335","0.0-11.0-0.64","113","2022-3-30","13:40:39","0","18","[""White""]","No","Female","4222398","","","","","","","","295","57","85","40","40","1",""
"null","null","clear_screen","canvas-keyboard-response","140","3438597","0.0-11.0-1.64","113","2022-3-30","13:40:39","0","18","[""White""]","No","Female","4222398","","","","","","","","295","57","85","40","40","",""
"1397","9","rating","canvas-keyboard-response","141","3440006","0.0-11.0-0.65","113","2022-3-30","13:40:39","0","18","[""White""]","No","Female","4222398","","","","","","","","214","57","57","25","33","1",""
"null","null","clear_screen","canvas-keyboard-response","142","3440266","0.0-11.0-1.65","113","2022-3-30","13:40:39","0","18","[""White""]","No","Female","4222398","","","","","","","","214","57","57","25","33","",""
"1960","4","rating","canvas-keyboard-response","143","3442239","0.0-11.0-0.66","113","2022-3-30","13:40:39","0","18","[""White""]","No","Female","4222398","","","","","","","","292","30","85","40","40","1",""
"null","null","clear_screen","canvas-keyboard-response","144","3442499","0.0-11.0-1.66","113","2022-3-30","13:40:39","0","18","[""White""]","No","Female","4222398","","","","","","","","292","30","85","40","40","",""
"4409","2","rating","canvas-keyboard-response","145","3446920","0.0-11.0-0.67","113","2022-3-30","13:40:39","0","18","[""White""]","No","Female","4222398","","","","","","","","101","140","30","10","33","0",""
"null","null","clear_screen","canvas-keyboard-response","146","3447182","0.0-11.0-1.67","113","2022-3-30","13:40:39","0","18","[""White""]","No","Female","4222398","","","","","","","","101","140","30","10","33","",""
"2336","8","rating","canvas-keyboard-response","147","3449534","0.0-11.0-0.68","113","2022-3-30","13:40:39","0","18","[""White""]","No","Female","4222398","","","","","","","","195","140","140","17","40","0",""
"null","null","clear_screen","canvas-keyboard-response","148","3449794","0.0-11.0-1.68","113","2022-3-30","13:40:39","0","18","[""White""]","No","Female","4222398","","","","","","","","195","140","140","17","40","",""
"2039","9","rating","canvas-keyboard-response","149","3451846","0.0-11.0-0.69","113","2022-3-30","13:40:39","0","18","[""White""]","No","Female","4222398","","","","","","","","227","85","85","25","33","1",""
"null","null","clear_screen","canvas-keyboard-response","150","3452107","0.0-11.0-1.69","113","2022-3-30","13:40:39","0","18","[""White""]","No","Female","4222398","","","","","","","","227","85","85","25","33","",""
"14712","4","rating","canvas-keyboard-response","151","3466830","0.0-11.0-0.70","113","2022-3-30","13:40:39","0","18","[""White""]","No","Female","4222398","","","","","","","","297","57","140","40","40","1",""
"null","null","clear_screen","canvas-keyboard-response","152","3467090","0.0-11.0-1.70","113","2022-3-30","13:40:39","0","18","[""White""]","No","Female","4222398","","","","","","","","297","57","140","40","40","",""
"12658","4","rating","canvas-keyboard-response","153","3479758","0.0-11.0-0.71","113","2022-3-30","13:40:39","0","18","[""White""]","No","Female","4222398","","","","","","","","201","30","57","25","33","0",""
"null","null","clear_screen","canvas-keyboard-response","154","3480017","0.0-11.0-1.71","113","2022-3-30","13:40:39","0","18","[""White""]","No","Female","4222398","","","","","","","","201","30","57","25","33","",""
"4600","6","rating","canvas-keyboard-response","155","3484630","0.0-11.0-0.72","113","2022-3-30","13:40:39","0","18","[""White""]","No","Female","4222398","","","","","","","","57","85","85","10","25","0",""
"null","null","clear_screen","canvas-keyboard-response","156","3484889","0.0-11.0-1.72","113","2022-3-30","13:40:39","0","18","[""White""]","No","Female","4222398","","","","","","","","57","85","85","10","25","",""
"1626","7","rating","canvas-keyboard-response","157","3486526","0.0-11.0-0.73","113","2022-3-30","13:40:39","0","18","[""White""]","No","Female","4222398","","","","","","","","78","113","85","10","25","0",""
"null","null","clear_screen","canvas-keyboard-response","158","3486786","0.0-11.0-1.73","113","2022-3-30","13:40:39","0","18","[""White""]","No","Female","4222398","","","","","","","","78","113","85","10","25","",""
"7331","6","rating","canvas-keyboard-response","159","3494126","0.0-11.0-0.74","113","2022-3-30","13:40:39","0","18","[""White""]","No","Female","4222398","","","","","","","","154","85","140","17","25","1",""
"null","null","clear_screen","canvas-keyboard-response","160","3494385","0.0-11.0-1.74","113","2022-3-30","13:40:39","0","18","[""White""]","No","Female","4222398","","","","","","","","154","85","140","17","25","",""
"2888","5","rating","canvas-keyboard-response","161","3497286","0.0-11.0-0.75","113","2022-3-30","13:40:39","0","18","[""White""]","No","Female","4222398","","","","","","","","59","85","140","10","25","1",""
"null","null","clear_screen","canvas-keyboard-response","162","3497545","0.0-11.0-1.75","113","2022-3-30","13:40:39","0","18","[""White""]","No","Female","4222398","","","","","","","","59","85","140","10","25","",""
"4794","6","rating","canvas-keyboard-response","163","3502350","0.0-11.0-0.76","113","2022-3-30","13:40:39","0","18","[""White""]","No","Female","4222398","","","","","","","","244","113","113","25","40","0",""
"null","null","clear_screen","canvas-keyboard-response","164","3502608","0.0-11.0-1.76","113","2022-3-30","13:40:39","0","18","[""White""]","No","Female","4222398","","","","","","","","244","113","113","25","40","",""
"3694","5","rating","canvas-keyboard-response","165","3506317","0.0-11.0-0.77","113","2022-3-30","13:40:39","0","18","[""White""]","No","Female","4222398","","","","","","","","231","85","57","25","40","0",""
"null","null","clear_screen","canvas-keyboard-response","166","3506577","0.0-11.0-1.77","113","2022-3-30","13:40:39","0","18","[""White""]","No","Female","4222398","","","","","","","","231","85","57","25","40","",""
"2818","4","rating","canvas-keyboard-response","167","3509406","0.0-11.0-0.78","113","2022-3-30","13:40:39","0","18","[""White""]","No","Female","4222398","","","","","","","","145","57","85","17","40","1",""
"null","null","clear_screen","canvas-keyboard-response","168","3509665","0.0-11.0-1.78","113","2022-3-30","13:40:39","0","18","[""White""]","No","Female","4222398","","","","","","","","145","57","85","17","40","",""
"2138","5","rating","canvas-keyboard-response","169","3511813","0.0-11.0-0.79","113","2022-3-30","13:40:39","0","18","[""White""]","No","Female","4222398","","","","","","","","51","85","57","10","17","0",""
"null","null","clear_screen","canvas-keyboard-response","170","3512073","0.0-11.0-1.79","113","2022-3-30","13:40:39","0","18","[""White""]","No","Female","4222398","","","","","","","","51","85","57","10","17","",""
"2213","3","rating","canvas-keyboard-response","171","3514302","0.0-11.0-0.80","113","2022-3-30","13:40:39","0","18","[""White""]","No","Female","4222398","","","","","","","","146","57","113","17","40","1",""
"null","null","clear_screen","canvas-keyboard-response","172","3514564","0.0-11.0-1.80","113","2022-3-30","13:40:39","0","18","[""White""]","No","Female","4222398","","","","","","","","146","57","113","17","40","",""
"2005","4","rating","canvas-keyboard-response","173","3516582","0.0-11.0-0.81","113","2022-3-30","13:40:39","0","18","[""White""]","No","Female","4222398","","","","","","","","16","30","57","10","33","1",""
"null","null","clear_screen","canvas-keyboard-response","174","3516842","0.0-11.0-1.81","113","2022-3-30","13:40:39","0","18","[""White""]","No","Female","4222398","","","","","","","","16","30","57","10","33","",""
"3039","4","rating","canvas-keyboard-response","175","3519894","0.0-11.0-0.82","113","2022-3-30","13:40:39","0","18","[""White""]","No","Female","4222398","","","","","","","","173","113","85","17","33","0",""
"null","null","clear_screen","canvas-keyboard-response","176","3520153","0.0-11.0-1.82","113","2022-3-30","13:40:39","0","18","[""White""]","No","Female","4222398","","","","","","","","173","113","85","17","33","",""
"4114","5","rating","canvas-keyboard-response","177","3524279","0.0-11.0-0.83","113","2022-3-30","13:40:39","0","18","[""White""]","No","Female","4222398","","","","","","","","10","30","30","10","25","0",""
"null","null","clear_screen","canvas-keyboard-response","178","3524538","0.0-11.0-1.83","113","2022-3-30","13:40:39","0","18","[""White""]","No","Female","4222398","","","","","","","","10","30","30","10","25","",""
"2408","2","rating","canvas-keyboard-response","179","3526958","0.0-11.0-0.84","113","2022-3-30","13:40:39","0","18","[""White""]","No","Female","4222398","","","","","","","","18","30","113","10","33","1",""
"null","null","clear_screen","canvas-keyboard-response","180","3527218","0.0-11.0-1.84","113","2022-3-30","13:40:39","0","18","[""White""]","No","Female","4222398","","","","","","","","18","30","113","10","33","",""
"1855","7","rating","canvas-keyboard-response","181","3529085","0.0-11.0-0.85","113","2022-3-30","13:40:39","0","18","[""White""]","No","Female","4222398","","","","","","","","271","57","113","33","40","1",""
"null","null","clear_screen","canvas-keyboard-response","182","3529344","0.0-11.0-1.85","113","2022-3-30","13:40:39","0","18","[""White""]","No","Female","4222398","","","","","","","","271","57","113","33","40","",""
"2194","1","rating","canvas-keyboard-response","183","3531549","0.0-11.0-0.86","113","2022-3-30","13:40:39","0","18","[""White""]","No","Female","4222398","","","","","","","","77","113","57","10","25","1",""
"null","null","clear_screen","canvas-keyboard-response","184","3531809","0.0-11.0-1.86","113","2022-3-30","13:40:39","0","18","[""White""]","No","Female","4222398","","","","","","","","77","113","57","10","25","",""
"9289","5","rating","canvas-keyboard-response","185","3541110","0.0-11.0-0.87","113","2022-3-30","13:40:39","0","18","[""White""]","No","Female","4222398","","","","","","","","71","113","30","10","17","1",""
"null","null","clear_screen","canvas-keyboard-response","186","3541369","0.0-11.0-1.87","113","2022-3-30","13:40:39","0","18","[""White""]","No","Female","4222398","","","","","","","","71","113","30","10","17","",""
"1600","5","rating","canvas-keyboard-response","187","3542982","0.0-11.0-0.88","113","2022-3-30","13:40:39","0","18","[""White""]","No","Female","4222398","","","","","","","","72","113","57","10","17","1",""
"null","null","clear_screen","canvas-keyboard-response","188","3543241","0.0-11.0-1.88","113","2022-3-30","13:40:39","0","18","[""White""]","No","Female","4222398","","","","","","","","72","113","57","10","17","",""
"2977","9","rating","canvas-keyboard-response","189","3546231","0.0-11.0-0.89","113","2022-3-30","13:40:39","0","18","[""White""]","No","Female","4222398","","","","","","","","276","85","57","33","40","0",""
"null","null","clear_screen","canvas-keyboard-response","190","3546491","0.0-11.0-1.89","113","2022-3-30","13:40:39","0","18","[""White""]","No","Female","4222398","","","","","","","","276","85","57","33","40","",""
"5115","5","rating","canvas-keyboard-response","191","3551622","0.0-11.0-0.90","113","2022-3-30","13:40:39","0","18","[""White""]","No","Female","4222398","","","","","","","","208","30","113","25","40","0",""
"null","null","clear_screen","canvas-keyboard-response","192","3551883","0.0-11.0-1.90","113","2022-3-30","13:40:39","0","18","[""White""]","No","Female","4222398","","","","","","","","208","30","113","25","40","",""
"2870","1","rating","canvas-keyboard-response","193","3554766","0.0-11.0-0.91","113","2022-3-30","13:40:39","0","18","[""White""]","No","Female","4222398","","","","","","","","191","140","30","17","40","1",""
"null","null","clear_screen","canvas-keyboard-response","194","3555025","0.0-11.0-1.91","113","2022-3-30","13:40:39","0","18","[""White""]","No","Female","4222398","","","","","","","","191","140","30","17","40","",""
"1217","1","rating","canvas-keyboard-response","195","3556254","0.0-11.0-0.92","113","2022-3-30","13:40:39","0","18","[""White""]","No","Female","4222398","","","","","","","","242","113","57","25","40","1",""
"null","null","clear_screen","canvas-keyboard-response","196","3556512","0.0-11.0-1.92","113","2022-3-30","13:40:39","0","18","[""White""]","No","Female","4222398","","","","","","","","242","113","57","25","40","",""
"8282","3","rating","canvas-keyboard-response","197","3564805","0.0-11.0-0.93","113","2022-3-30","13:40:39","0","18","[""White""]","No","Female","4222398","","","","","","","","246","140","30","25","33","0",""
"null","null","clear_screen","canvas-keyboard-response","198","3565065","0.0-11.0-1.93","113","2022-3-30","13:40:39","0","18","[""White""]","No","Female","4222398","","","","","","","","246","140","30","25","33","",""
"3258","7","rating","canvas-keyboard-response","199","3568334","0.0-11.0-0.94","113","2022-3-30","13:40:39","0","18","[""White""]","No","Female","4222398","","","","","","","","170","113","140","17","25","1",""
"null","null","clear_screen","canvas-keyboard-response","200","3568595","0.0-11.0-1.94","113","2022-3-30","13:40:39","0","18","[""White""]","No","Female","4222398","","","","","","","","170","113","140","17","25","",""
"1095","8","rating","canvas-keyboard-response","201","3569701","0.0-11.0-0.95","113","2022-3-30","13:40:39","0","18","[""White""]","No","Female","4222398","","","","","","","","232","85","85","25","40","1",""
"null","null","clear_screen","canvas-keyboard-response","202","3569960","0.0-11.0-1.95","113","2022-3-30","13:40:39","0","18","[""White""]","No","Female","4222398","","","","","","","","232","85","85","25","40","",""
"2289","5","rating","canvas-keyboard-response","203","3572262","0.0-11.0-0.96","113","2022-3-30","13:40:39","0","18","[""White""]","No","Female","4222398","","","","","","","","275","85","30","33","40","1",""
"null","null","clear_screen","canvas-keyboard-response","204","3572522","0.0-11.0-1.96","113","2022-3-30","13:40:39","0","18","[""White""]","No","Female","4222398","","","","","","","","275","85","30","33","40","",""
"1248","4","rating","canvas-keyboard-response","205","3573781","0.0-11.0-0.97","113","2022-3-30","13:40:39","0","18","[""White""]","No","Female","4222398","","","","","","","","21","30","57","10","40","1",""
"null","null","clear_screen","canvas-keyboard-response","206","3574045","0.0-11.0-1.97","113","2022-3-30","13:40:39","0","18","[""White""]","No","Female","4222398","","","","","","","","21","30","57","10","40","",""
"2221","8","rating","canvas-keyboard-response","207","3576278","0.0-11.0-0.98","113","2022-3-30","13:40:39","0","18","[""White""]","No","Female","4222398","","","","","","","","100","140","140","10","25","0",""
"null","null","clear_screen","canvas-keyboard-response","208","3576536","0.0-11.0-1.98","113","2022-3-30","13:40:39","0","18","[""White""]","No","Female","4222398","","","","","","","","100","140","140","10","25","",""
"2345","9","rating","canvas-keyboard-response","209","3578895","0.0-11.0-0.99","113","2022-3-30","13:40:39","0","18","[""White""]","No","Female","4222398","","","","","","","","1","30","57","10","10","1",""
"null","null","clear_screen","canvas-keyboard-response","210","3579157","0.0-11.0-1.99","113","2022-3-30","13:40:39","0","18","[""White""]","No","Female","4222398","","","","","","","","1","30","57","10","10","",""
"1867","6","rating","canvas-keyboard-response","211","3581038","0.0-11.0-0.100","113","2022-3-30","13:40:39","0","18","[""White""]","No","Female","4222398","","","","","","","","218","57","30","25","40","0",""
"null","null","clear_screen","canvas-keyboard-response","212","3581298","0.0-11.0-1.100","113","2022-3-30","13:40:39","0","18","[""White""]","No","Female","4222398","","","","","","","","218","57","30","25","40","",""
"800","6","rating","canvas-keyboard-response","213","3582109","0.0-11.0-0.101","113","2022-3-30","13:40:39","0","18","[""White""]","No","Female","4222398","","","","","","","","206","30","57","25","40","0",""
"null","null","clear_screen","canvas-keyboard-response","214","3582369","0.0-11.0-1.101","113","2022-3-30","13:40:39","0","18","[""White""]","No","Female","4222398","","","","","","","","206","30","57","25","40","",""
"1728","5","rating","canvas-keyboard-response","215","3584109","0.0-11.0-0.102","113","2022-3-30","13:40:39","0","18","[""White""]","No","Female","4222398","","","","","","","","61","85","57","10","33","1",""
"null","null","clear_screen","canvas-keyboard-response","216","3584369","0.0-11.0-1.102","113","2022-3-30","13:40:39","0","18","[""White""]","No","Female","4222398","","","","","","","","61","85","57","10","33","",""
"1905","3","rating","canvas-keyboard-response","217","3586286","0.0-11.0-0.103","113","2022-3-30","13:40:39","0","18","[""White""]","No","Female","4222398","","","","","","","","212","57","140","25","25","0",""
"null","null","clear_screen","canvas-keyboard-response","218","3586544","0.0-11.0-1.103","113","2022-3-30","13:40:39","0","18","[""White""]","No","Female","4222398","","","","","","","","212","57","140","25","25","",""
"24730","5","rating","canvas-keyboard-response","219","3611286","0.0-11.0-0.104","113","2022-3-30","13:40:39","0","18","[""White""]","No","Female","4222398","","","","","","","","230","85","30","25","40","0",""
"null","null","clear_screen","canvas-keyboard-response","220","3611546","0.0-11.0-1.104","113","2022-3-30","13:40:39","0","18","[""White""]","No","Female","4222398","","","","","","","","230","85","30","25","40","",""
"6927","6","rating","canvas-keyboard-response","221","3618485","0.0-11.0-0.105","113","2022-3-30","13:40:39","0","18","[""White""]","No","Female","4222398","","","","","","","","28","57","30","10","17","0",""
"null","null","clear_screen","canvas-keyboard-response","222","3618744","0.0-11.0-1.105","113","2022-3-30","13:40:39","0","18","[""White""]","No","Female","4222398","","","","","","","","28","57","30","10","17","",""
"1762","4","rating","canvas-keyboard-response","223","3620516","0.0-11.0-0.106","113","2022-3-30","13:40:39","0","18","[""White""]","No","Female","4222398","","","","","","","","69","85","140","10","40","1",""
"null","null","clear_screen","canvas-keyboard-response","224","3620778","0.0-11.0-1.106","113","2022-3-30","13:40:39","0","18","[""White""]","No","Female","4222398","","","","","","","","69","85","140","10","40","",""
"1408","6","rating","canvas-keyboard-response","225","3622197","0.0-11.0-0.107","113","2022-3-30","13:40:39","0","18","[""White""]","No","Female","4222398","","","","","","","","204","30","140","25","33","1",""
"239","1","clear_screen","canvas-keyboard-response","226","3622445","0.0-11.0-1.107","113","2022-3-30","13:40:39","0","18","[""White""]","No","Female","4222398","","","","","","","","204","30","140","25","33","",""
"1558","1","rating","canvas-keyboard-response","227","3624014","0.0-11.0-0.108","113","2022-3-30","13:40:39","0","18","[""White""]","No","Female","4222398","","","","","","","","65","85","30","10","40","1",""
"null","null","clear_screen","canvas-keyboard-response","228","3624273","0.0-11.0-1.108","113","2022-3-30","13:40:39","0","18","[""White""]","No","Female","4222398","","","","","","","","65","85","30","10","40","",""
"1620","9","rating","canvas-keyboard-response","229","3625908","0.0-11.0-0.109","113","2022-3-30","13:40:39","0","18","[""White""]","No","Female","4222398","","","","","","","","95","140","140","10","17","1",""
"null","null","clear_screen","canvas-keyboard-response","230","3626168","0.0-11.0-1.109","113","2022-3-30","13:40:39","0","18","[""White""]","No","Female","4222398","","","","","","","","95","140","140","10","17","",""
"1690","6","rating","canvas-keyboard-response","231","3627868","0.0-11.0-0.110","113","2022-3-30","13:40:39","0","18","[""White""]","No","Female","4222398","","","","","","","","229","85","140","25","33","0",""
"null","null","clear_screen","canvas-keyboard-response","232","3628128","0.0-11.0-1.110","113","2022-3-30","13:40:39","0","18","[""White""]","No","Female","4222398","","","","","","","","229","85","140","25","33","",""
"1403","6","rating","canvas-keyboard-response","233","3629541","0.0-11.0-0.111","113","2022-3-30","13:40:39","0","18","[""White""]","No","Female","4222398","","","","","","","","205","30","30","25","40","0",""
"null","null","clear_screen","canvas-keyboard-response","234","3629800","0.0-11.0-1.111","113","2022-3-30","13:40:39","0","18","[""White""]","No","Female","4222398","","","","","","","","205","30","30","25","40","",""
"3017","4","rating","canvas-keyboard-response","235","3632829","0.0-11.0-0.112","113","2022-3-30","13:40:39","0","18","[""White""]","No","Female","4222398","","","","","","","","286","140","30","33","40","0",""
"null","null","clear_screen","canvas-keyboard-response","236","3633087","0.0-11.0-1.112","113","2022-3-30","13:40:39","0","18","[""White""]","No","Female","4222398","","","","","","","","286","140","30","33","40","",""
"2907","8","rating","canvas-keyboard-response","237","3636005","0.0-11.0-0.113","113","2022-3-30","13:40:39","0","18","[""White""]","No","Female","4222398","","","","","","","","25","57","85","10","10","0",""
"null","null","clear_screen","canvas-keyboard-response","238","3636263","0.0-11.0-1.113","113","2022-3-30","13:40:39","0","18","[""White""]","No","Female","4222398","","","","","","","","25","57","85","10","10","",""
"1648","7","rating","canvas-keyboard-response","239","3637925","0.0-11.0-0.114","113","2022-3-30","13:40:39","0","18","[""White""]","No","Female","4222398","","","","","","","","117","30","85","17","25","1",""
"null","null","clear_screen","canvas-keyboard-response","240","3638183","0.0-11.0-1.114","113","2022-3-30","13:40:39","0","18","[""White""]","No","Female","4222398","","","","","","","","117","30","85","17","25","",""
"2770","5","rating","canvas-keyboard-response","241","3640965","0.0-11.0-0.115","113","2022-3-30","13:40:39","0","18","[""White""]","No","Female","4222398","","","","","","","","225","85","30","25","33","1",""
"null","null","clear_screen","canvas-keyboard-response","242","3641224","0.0-11.0-1.115","113","2022-3-30","13:40:39","0","18","[""White""]","No","Female","4222398","","","","","","","","225","85","30","25","33","",""
"2217","4","rating","canvas-keyboard-response","243","3643454","0.0-11.0-0.116","113","2022-3-30","13:40:39","0","18","[""White""]","No","Female","4222398","","","","","","","","23","30","113","10","40","0",""
"null","null","clear_screen","canvas-keyboard-response","244","3643717","0.0-11.0-1.116","113","2022-3-30","13:40:39","0","18","[""White""]","No","Female","4222398","","","","","","","","23","30","113","10","40","",""
"1833","3","rating","canvas-keyboard-response","245","3645565","0.0-11.0-0.117","113","2022-3-30","13:40:39","0","18","[""White""]","No","Female","4222398","","","","","","","","129","30","140","17","40","1",""
"null","null","clear_screen","canvas-keyboard-response","246","3645826","0.0-11.0-1.117","113","2022-3-30","13:40:39","0","18","[""White""]","No","Female","4222398","","","","","","","","129","30","140","17","40","",""
"3182","4","rating","canvas-keyboard-response","247","3649020","0.0-11.0-0.118","113","2022-3-30","13:40:39","0","18","[""White""]","No","Female","4222398","","","","","","","","203","30","113","25","33","1",""
"null","null","clear_screen","canvas-keyboard-response","248","3649280","0.0-11.0-1.118","113","2022-3-30","13:40:39","0","18","[""White""]","No","Female","4222398","","","","","","","","203","30","113","25","33","",""
"2248","3","rating","canvas-keyboard-response","249","3651541","0.0-11.0-0.119","113","2022-3-30","13:40:39","0","18","[""White""]","No","Female","4222398","","","","","","","","9","30","140","10","17","1",""
"null","null","clear_screen","canvas-keyboard-response","250","3651799","0.0-11.0-1.119","113","2022-3-30","13:40:39","0","18","[""White""]","No","Female","4222398","","","","","","","","9","30","140","10","17","",""
"2674","4","rating","canvas-keyboard-response","251","3654485","0.0-11.0-0.120","113","2022-3-30","13:40:39","0","18","[""White""]","No","Female","4222398","","","","","","","","282","113","57","33","40","1",""
"null","null","clear_screen","canvas-keyboard-response","252","3654744","0.0-11.0-1.120","113","2022-3-30","13:40:39","0","18","[""White""]","No","Female","4222398","","","","","","","","282","113","57","33","40","",""
"2889","7","rating","canvas-keyboard-response","253","3657645","0.0-11.0-0.121","113","2022-3-30","13:40:39","0","18","[""White""]","No","Female","4222398","","","","","","","","98","140","85","10","25","0",""
"null","null","clear_screen","canvas-keyboard-response","254","3657905","0.0-11.0-1.121","113","2022-3-30","13:40:39","0","18","[""White""]","No","Female","4222398","","","","","","","","98","140","85","10","25","",""
"1009","7","rating","canvas-keyboard-response","255","3658924","0.0-11.0-0.122","113","2022-3-30","13:40:39","0","18","[""White""]","No","Female","4222398","","","","","","","","220","57","85","25","40","0",""
"null","null","clear_screen","canvas-keyboard-response","256","3659184","0.0-11.0-1.122","113","2022-3-30","13:40:39","0","18","[""White""]","No","Female","4222398","","","","","","","","220","57","85","25","40","",""
"1368","8","rating","canvas-keyboard-response","257","3660565","0.0-11.0-0.123","113","2022-3-30","13:40:39","0","18","[""White""]","No","Female","4222398","","","","","","","","279","85","140","33","40","0",""
"null","null","clear_screen","canvas-keyboard-response","258","3660824","0.0-11.0-1.123","113","2022-3-30","13:40:39","0","18","[""White""]","No","Female","4222398","","","","","","","","279","85","140","33","40","",""
"1931","6","rating","canvas-keyboard-response","259","3662765","0.0-11.0-0.124","113","2022-3-30","13:40:39","0","18","[""White""]","No","Female","4222398","","","","","","","","110","140","140","10","40","0",""
"null","null","clear_screen","canvas-keyboard-response","260","3663024","0.0-11.0-1.124","113","2022-3-30","13:40:39","0","18","[""White""]","No","Female","4222398","","","","","","","","110","140","140","10","40","",""
"2545","8","rating","canvas-keyboard-response","261","3665581","0.0-11.0-0.125","113","2022-3-30","13:40:39","0","18","[""White""]","No","Female","4222398","","","","","","","","283","113","85","33","40","1",""
"null","null","clear_screen","canvas-keyboard-response","262","3665840","0.0-11.0-1.125","113","2022-3-30","13:40:39","0","18","[""White""]","No","Female","4222398","","","","","","","","283","113","85","33","40","",""
"2297","4","rating","canvas-keyboard-response","263","3668149","0.0-11.0-0.126","113","2022-3-30","13:40:39","0","18","[""White""]","No","Female","4222398","","","","","","","","143","57","30","17","40","1",""
"null","null","clear_screen","canvas-keyboard-response","264","3668412","0.0-11.0-1.126","113","2022-3-30","13:40:39","0","18","[""White""]","No","Female","4222398","","","","","","","","143","57","30","17","40","",""
"1469","8","rating","canvas-keyboard-response","265","3669893","0.0-11.0-0.127","113","2022-3-30","13:40:39","0","18","[""White""]","No","Female","4222398","","","","","","","","296","57","113","40","40","1",""
"null","null","clear_screen","canvas-keyboard-response","266","3670152","0.0-11.0-1.127","113","2022-3-30","13:40:39","0","18","[""White""]","No","Female","4222398","","","","","","","","296","57","113","40","40","",""
"1665","3","rating","canvas-keyboard-response","267","3671828","0.0-11.0-0.128","113","2022-3-30","13:40:39","0","18","[""White""]","No","Female","4222398","","","","","","","","124","30","140","17","33","1",""
"null","null","clear_screen","canvas-keyboard-response","268","3672088","0.0-11.0-1.128","113","2022-3-30","13:40:39","0","18","[""White""]","No","Female","4222398","","","","","","","","124","30","140","17","33","",""
"3186","3","rating","canvas-keyboard-response","269","3675284","0.0-11.0-0.129","113","2022-3-30","13:40:39","0","18","[""White""]","No","Female","4222398","","","","","","","","19","30","140","10","33","1",""
"null","null","clear_screen","canvas-keyboard-response","270","3675544","0.0-11.0-1.129","113","2022-3-30","13:40:39","0","18","[""White""]","No","Female","4222398","","","","","","","","19","30","140","10","33","",""
"24403","5","rating","canvas-keyboard-response","271","3699957","0.0-11.0-0.130","113","2022-3-30","13:40:39","0","18","[""White""]","No","Female","4222398","","","","","","","","141","57","113","17","33","0",""
"null","null","clear_screen","canvas-keyboard-response","272","3700216","0.0-11.0-1.130","113","2022-3-30","13:40:39","0","18","[""White""]","No","Female","4222398","","","","","","","","141","57","113","17","33","",""
"11497","5","rating","canvas-keyboard-response","273","3711724","0.0-11.0-0.131","113","2022-3-30","13:40:39","0","18","[""White""]","No","Female","4222398","","","","","","","","67","85","85","10","40","1",""
"null","null","clear_screen","canvas-keyboard-response","274","3711984","0.0-11.0-1.131","113","2022-3-30","13:40:39","0","18","[""White""]","No","Female","4222398","","","","","","","","67","85","85","10","40","",""
"3765","7","rating","canvas-keyboard-response","275","3715765","0.0-11.0-0.132","113","2022-3-30","13:40:39","0","18","[""White""]","No","Female","4222398","","","","","","","","174","113","113","17","33","0",""
"null","null","clear_screen","canvas-keyboard-response","276","3716027","0.0-11.0-1.132","113","2022-3-30","13:40:39","0","18","[""White""]","No","Female","4222398","","","","","","","","174","113","113","17","33","",""
"1996","7","rating","canvas-keyboard-response","277","3718037","0.0-11.0-0.133","113","2022-3-30","13:40:39","0","18","[""White""]","No","Female","4222398","","","","","","","","196","30","57","25","25","1",""
"null","null","clear_screen","canvas-keyboard-response","278","3718300","0.0-11.0-1.133","113","2022-3-30","13:40:39","0","18","[""White""]","No","Female","4222398","","","","","","","","196","30","57","25","25","",""
"2548","4","rating","canvas-keyboard-response","279","3720861","0.0-11.0-0.134","113","2022-3-30","13:40:39","0","18","[""White""]","No","Female","4222398","","","","","","","","147","57","140","17","40","0",""
"null","null","clear_screen","canvas-keyboard-response","280","3721120","0.0-11.0-1.134","113","2022-3-30","13:40:39","0","18","[""White""]","No","Female","4222398","","","","","","","","147","57","140","17","40","",""
"1521","1","rating","canvas-keyboard-response","281","3722653","0.0-11.0-0.135","113","2022-3-30","13:40:39","0","18","[""White""]","No","Female","4222398","","","","","","","","106","140","30","10","40","1",""
"null","null","clear_screen","canvas-keyboard-response","282","3722912","0.0-11.0-1.135","113","2022-3-30","13:40:39","0","18","[""White""]","No","Female","4222398","","","","","","","","106","140","30","10","40","",""
"3113","4","rating","canvas-keyboard-response","283","3726037","0.0-11.0-0.136","113","2022-3-30","13:40:39","0","18","[""White""]","No","Female","4222398","","","","","","","","97","140","57","10","25","0",""
"null","null","clear_screen","canvas-keyboard-response","284","3726296","0.0-11.0-1.136","113","2022-3-30","13:40:39","0","18","[""White""]","No","Female","4222398","","","","","","","","97","140","57","10","25","",""
"1814","3","rating","canvas-keyboard-response","285","3728124","0.0-11.0-0.137","113","2022-3-30","13:40:39","0","18","[""White""]","No","Female","4222398","","","","","","","","160","85","30","17","40","0",""
"null","null","clear_screen","canvas-keyboard-response","286","3728384","0.0-11.0-1.137","113","2022-3-30","13:40:39","0","18","[""White""]","No","Female","4222398","","","","","","","","160","85","30","17","40","",""
"2185","7","rating","canvas-keyboard-response","287","3730580","0.0-11.0-0.138","113","2022-3-30","13:40:39","0","18","[""White""]","No","Female","4222398","","","","","","","","135","57","85","17","25","1",""
"null","null","clear_screen","canvas-keyboard-response","288","3730840","0.0-11.0-1.138","113","2022-3-30","13:40:39","0","18","[""White""]","No","Female","4222398","","","","","","","","135","57","85","17","25","",""
"1760","4","rating","canvas-keyboard-response","289","3732612","0.0-11.0-0.139","113","2022-3-30","13:40:39","0","18","[""White""]","No","Female","4222398","","","","","","","","12","30","85","10","25","1",""
"null","null","clear_screen","canvas-keyboard-response","290","3732872","0.0-11.0-1.139","113","2022-3-30","13:40:39","0","18","[""White""]","No","Female","4222398","","","","","","","","12","30","85","10","25","",""
"4137","5","rating","canvas-keyboard-response","291","3737020","0.0-11.0-0.140","113","2022-3-30","13:40:39","0","18","[""White""]","No","Female","4222398","","","","","","","","245","113","140","25","40","0",""
"null","null","clear_screen","canvas-keyboard-response","292","3737280","0.0-11.0-1.140","113","2022-3-30","13:40:39","0","18","[""White""]","No","Female","4222398","","","","","","","","245","113","140","25","40","",""
"2098","9","rating","canvas-keyboard-response","293","3739388","0.0-11.0-0.141","113","2022-3-30","13:40:39","0","18","[""White""]","No","Female","4222398","","","","","","","","250","140","140","25","33","1",""
"null","null","clear_screen","canvas-keyboard-response","294","3739648","0.0-11.0-1.141","113","2022-3-30","13:40:39","0","18","[""White""]","No","Female","4222398","","","","","","","","250","140","140","25","33","",""
"1394","6","rating","canvas-keyboard-response","295","3741053","0.0-11.0-0.142","113","2022-3-30","13:40:39","0","18","[""White""]","No","Female","4222398","","","","","","","","94","140","113","10","17","1",""
"null","null","clear_screen","canvas-keyboard-response","296","3741311","0.0-11.0-1.142","113","2022-3-30","13:40:39","0","18","[""White""]","No","Female","4222398","","","","","","","","94","140","113","10","17","",""
"2681","5","rating","canvas-keyboard-response","297","3744005","0.0-11.0-0.143","113","2022-3-30","13:40:39","0","18","[""White""]","No","Female","4222398","","","","","","","","248","140","85","25","33","1",""
"null","null","clear_screen","canvas-keyboard-response","298","3744263","0.0-11.0-1.143","113","2022-3-30","13:40:39","0","18","[""White""]","No","Female","4222398","","","","","","","","248","140","85","25","33","",""
"1586","3","rating","canvas-keyboard-response","299","3745860","0.0-11.0-0.144","113","2022-3-30","13:40:39","0","18","[""White""]","No","Female","4222398","","","","","","","","281","113","30","33","40","0",""
"null","null","clear_screen","canvas-keyboard-response","300","3746119","0.0-11.0-1.144","113","2022-3-30","13:40:39","0","18","[""White""]","No","Female","4222398","","","","","","","","281","113","30","33","40","",""
"1626","3","rating","canvas-keyboard-response","301","3747757","0.0-11.0-0.145","113","2022-3-30","13:40:39","0","18","[""White""]","No","Female","4222398","","","","","","","","142","57","140","17","33","0",""
"null","null","clear_screen","canvas-keyboard-response","302","3748015","0.0-11.0-1.145","113","2022-3-30","13:40:39","0","18","[""White""]","No","Female","4222398","","","","","","","","142","57","140","17","33","",""
"2049","3","rating","canvas-keyboard-response","303","3750076","0.0-11.0-0.146","113","2022-3-30","13:40:39","0","18","[""White""]","No","Female","4222398","","","","","","","","172","113","57","17","33","1",""
"null","null","clear_screen","canvas-keyboard-response","304","3750335","0.0-11.0-1.146","113","2022-3-30","13:40:39","0","18","[""White""]","No","Female","4222398","","","","","","","","172","113","57","17","33","",""
"2482","6","rating","canvas-keyboard-response","305","3752828","0.0-11.0-0.147","113","2022-3-30","13:40:39","0","18","[""White""]","No","Female","4222398","","","","","","","","116","30","57","17","25","1",""
"null","null","clear_screen","canvas-keyboard-response","306","3753087","0.0-11.0-1.147","113","2022-3-30","13:40:39","0","18","[""White""]","No","Female","4222398","","","","","","","","116","30","57","17","25","",""
"1482","8","rating","canvas-keyboard-response","307","3754580","0.0-11.0-0.148","113","2022-3-30","13:40:39","0","18","[""White""]","No","Female","4222398","","","","","","","","249","140","113","25","33","0",""
"null","null","clear_screen","canvas-keyboard-response","308","3754839","0.0-11.0-1.148","113","2022-3-30","13:40:39","0","18","[""White""]","No","Female","4222398","","","","","","","","249","140","113","25","33","",""
"1605","8","rating","canvas-keyboard-response","309","3756460","0.0-11.0-0.149","113","2022-3-30","13:40:39","0","18","[""White""]","No","Female","4222398","","","","","","","","200","30","30","25","33","0",""
"null","null","clear_screen","canvas-keyboard-response","310","3756719","0.0-11.0-1.149","113","2022-3-30","13:40:39","0","18","[""White""]","No","Female","4222398","","","","","","","","200","30","30","25","33","",""
"947","8","rating","canvas-keyboard-response","311","3757676","0.0-11.0-0.150","113","2022-3-30","13:40:39","0","18","[""White""]","No","Female","4222398","","","","","","","","139","57","57","17","33","0",""
"null","null","clear_screen","canvas-keyboard-response","312","3757935","0.0-11.0-1.150","113","2022-3-30","13:40:39","0","18","[""White""]","No","Female","4222398","","","","","","","","139","57","57","17","33","",""
"11433","7","rating","canvas-keyboard-response","313","3769380","0.0-11.0-0.151","113","2022-3-30","13:40:39","0","18","[""White""]","No","Female","4222398","","","","","","","","49","85","140","10","10","0",""
"null","null","clear_screen","canvas-keyboard-response","314","3769639","0.0-11.0-1.151","113","2022-3-30","13:40:39","0","18","[""White""]","No","Female","4222398","","","","","","","","49","85","140","10","10","",""
"1393","9","rating","canvas-keyboard-response","315","3771043","0.0-11.0-0.152","113","2022-3-30","13:40:39","0","18","[""White""]","No","Female","4222398","","","","","","","","5","30","30","10","17","1",""
"null","null","clear_screen","canvas-keyboard-response","316","3771303","0.0-11.0-1.152","113","2022-3-30","13:40:39","0","18","[""White""]","No","Female","4222398","","","","","","","","5","30","30","10","17","",""
"3385","8","rating","canvas-keyboard-response","317","3774699","0.0-11.0-0.153","113","2022-3-30","13:40:39","0","18","[""White""]","No","Female","4222398","","","","","","","","235","113","140","25","25","0",""
"null","null","clear_screen","canvas-keyboard-response","318","3774959","0.0-11.0-1.153","113","2022-3-30","13:40:39","0","18","[""White""]","No","Female","4222398","","","","","","","","235","113","140","25","25","",""
"3643","4","rating","canvas-keyboard-response","319","3778613","0.0-11.0-0.154","113","2022-3-30","13:40:39","0","18","[""White""]","No","Female","4222398","","","","","","","","264","30","140","33","40","1",""
"null","null","clear_screen","canvas-keyboard-response","320","3778874","0.0-11.0-1.154","113","2022-3-30","13:40:39","0","18","[""White""]","No","Female","4222398","","","","","","","","264","30","140","33","40","",""
"1826","7","rating","canvas-keyboard-response","321","3780716","0.0-11.0-0.155","113","2022-3-30","13:40:39","0","18","[""White""]","No","Female","4222398","","","","","","","","79","113","113","10","25","0",""
"null","null","clear_screen","canvas-keyboard-response","322","3780977","0.0-11.0-1.155","113","2022-3-30","13:40:39","0","18","[""White""]","No","Female","4222398","","","","","","","","79","113","113","10","25","",""
"1598","4","rating","canvas-keyboard-response","323","3782588","0.0-11.0-0.156","113","2022-3-30","13:40:39","0","18","[""White""]","No","Female","4222398","","","","","","","","288","140","85","33","40","1",""
"null","null","clear_screen","canvas-keyboard-response","324","3782849","0.0-11.0-1.156","113","2022-3-30","13:40:39","0","18","[""White""]","No","Female","4222398","","","","","","","","288","140","85","33","40","",""
"1718","4","rating","canvas-keyboard-response","325","3784581","0.0-11.0-0.157","113","2022-3-30","13:40:39","0","18","[""White""]","No","Female","4222398","","","","","","","","92","140","57","10","17","0",""
"null","null","clear_screen","canvas-keyboard-response","326","3784841","0.0-11.0-1.157","113","2022-3-30","13:40:39","0","18","[""White""]","No","Female","4222398","","","","","","","","92","140","57","10","17","",""
"1518","5","rating","canvas-keyboard-response","327","3786372","0.0-11.0-0.158","113","2022-3-30","13:40:39","0","18","[""White""]","No","Female","4222398","","","","","","","","162","85","85","17","40","1",""
"null","null","clear_screen","canvas-keyboard-response","328","3786632","0.0-11.0-1.158","113","2022-3-30","13:40:39","0","18","[""White""]","No","Female","4222398","","","","","","","","162","85","85","17","40","",""
"2025","4","rating","canvas-keyboard-response","329","3788668","0.0-11.0-0.159","113","2022-3-30","13:40:39","0","18","[""White""]","No","Female","4222398","","","","","","","","198","30","113","25","25","0",""
"null","null","clear_screen","canvas-keyboard-response","330","3788927","0.0-11.0-1.159","113","2022-3-30","13:40:39","0","18","[""White""]","No","Female","4222398","","","","","","","","198","30","113","25","25","",""
"2321","4","rating","canvas-keyboard-response","331","3791260","0.0-11.0-0.160","113","2022-3-30","13:40:39","0","18","[""White""]","No","Female","4222398","","","","","","","","42","57","140","10","33","1",""
"null","null","clear_screen","canvas-keyboard-response","332","3791520","0.0-11.0-1.160","113","2022-3-30","13:40:39","0","18","[""White""]","No","Female","4222398","","","","","","","","42","57","140","10","33","",""
"2161","8","rating","canvas-keyboard-response","333","3793692","0.0-11.0-0.161","113","2022-3-30","13:40:39","0","18","[""White""]","No","Female","4222398","","","","","","","","130","57","85","17","17","1",""
"null","null","clear_screen","canvas-keyboard-response","334","3793951","0.0-11.0-1.161","113","2022-3-30","13:40:39","0","18","[""White""]","No","Female","4222398","","","","","","","","130","57","85","17","17","",""
"7089","3","rating","canvas-keyboard-response","335","3801052","0.0-11.0-0.162","113","2022-3-30","13:40:39","0","18","[""White""]","No","Female","4222398","","","","","","","","166","113","30","17","25","0",""
"null","null","clear_screen","canvas-keyboard-response","336","3801312","0.0-11.0-1.162","113","2022-3-30","13:40:39","0","18","[""White""]","No","Female","4222398","","","","","","","","166","113","30","17","25","",""
"4808","3","rating","canvas-keyboard-response","337","3806132","0.0-11.0-0.163","113","2022-3-30","13:40:39","0","18","[""White""]","No","Female","4222398","","","","","","","","171","113","30","17","33","1",""
"null","null","clear_screen","canvas-keyboard-response","338","3806391","0.0-11.0-1.163","113","2022-3-30","13:40:39","0","18","[""White""]","No","Female","4222398","","","","","","","","171","113","30","17","33","",""
"1888","3","rating","canvas-keyboard-response","339","3808292","0.0-11.0-0.164","113","2022-3-30","13:40:39","0","18","[""White""]","No","Female","4222398","","","","","","","","108","140","85","10","40","1",""
"null","null","clear_screen","canvas-keyboard-response","340","3808551","0.0-11.0-1.164","113","2022-3-30","13:40:39","0","18","[""White""]","No","Female","4222398","","","","","","","","108","140","85","10","40","",""
"3097","5","rating","canvas-keyboard-response","341","3811659","0.0-11.0-0.165","113","2022-3-30","13:40:39","0","18","[""White""]","No","Female","4222398","","","","","","","","104","140","113","10","33","0",""
"null","null","clear_screen","canvas-keyboard-response","342","3811918","0.0-11.0-1.165","113","2022-3-30","13:40:39","0","18","[""White""]","No","Female","4222398","","","","","","","","104","140","113","10","33","",""
"1283","7","rating","canvas-keyboard-response","343","3813211","0.0-11.0-0.166","113","2022-3-30","13:40:39","0","18","[""White""]","No","Female","4222398","","","","","","","","233","85","113","25","40","0",""
"null","null","clear_screen","canvas-keyboard-response","344","3813471","0.0-11.0-1.166","113","2022-3-30","13:40:39","0","18","[""White""]","No","Female","4222398","","","","","","","","233","85","113","25","40","",""
"1233","5","rating","canvas-keyboard-response","345","3814716","0.0-11.0-0.167","113","2022-3-30","13:40:39","0","18","[""White""]","No","Female","4222398","","","","","","","","40","57","85","10","33","1",""
"null","null","clear_screen","canvas-keyboard-response","346","3814975","0.0-11.0-1.167","113","2022-3-30","13:40:39","0","18","[""White""]","No","Female","4222398","","","","","","","","40","57","85","10","33","",""
"6202","3","rating","canvas-keyboard-response","347","3821188","0.0-11.0-0.168","113","2022-3-30","13:40:39","0","18","[""White""]","No","Female","4222398","","","","","","","","187","140","57","17","33","0",""
"null","null","clear_screen","canvas-keyboard-response","348","3821447","0.0-11.0-1.168","113","2022-3-30","13:40:39","0","18","[""White""]","No","Female","4222398","","","","","","","","187","140","57","17","33","",""
"9745","5","rating","canvas-keyboard-response","349","3831204","0.0-11.0-0.169","113","2022-3-30","13:40:39","0","18","[""White""]","No","Female","4222398","","","","","","","","118","30","113","17","25","0",""
"null","null","clear_screen","canvas-keyboard-response","350","3831463","0.0-11.0-1.169","113","2022-3-30","13:40:39","0","18","[""White""]","No","Female","4222398","","","","","","","","118","30","113","17","25","",""
"7744","5","rating","canvas-keyboard-response","351","3839219","0.0-11.0-0.170","113","2022-3-30","13:40:39","0","18","[""White""]","No","Female","4222398","","","","","","","","211","57","113","25","25","1",""
"null","null","clear_screen","canvas-keyboard-response","352","3839479","0.0-11.0-1.170","113","2022-3-30","13:40:39","0","18","[""White""]","No","Female","4222398","","","","","","","","211","57","113","25","25","",""
"9777","4","rating","canvas-keyboard-response","353","3849268","0.0-11.0-0.171","113","2022-3-30","13:40:39","0","18","[""White""]","No","Female","4222398","","","","","","","","138","57","30","17","33","1",""
"null","null","clear_screen","canvas-keyboard-response","354","3849534","0.0-11.0-1.171","113","2022-3-30","13:40:39","0","18","[""White""]","No","Female","4222398","","","","","","","","138","57","30","17","33","",""
"2991","4","rating","canvas-keyboard-response","355","3852540","0.0-11.0-0.172","113","2022-3-30","13:40:39","0","18","[""White""]","No","Female","4222398","","","","","","","","45","57","85","10","40","1",""
"null","null","clear_screen","canvas-keyboard-response","356","3852801","0.0-11.0-1.172","113","2022-3-30","13:40:39","0","18","[""White""]","No","Female","4222398","","","","","","","","45","57","85","10","40","",""
"2526","8","rating","canvas-keyboard-response","357","3855341","0.0-11.0-0.173","113","2022-3-30","13:40:39","0","18","[""White""]","No","Female","4222398","","","","","","","","239","113","113","25","33","0",""
"null","null","clear_screen","canvas-keyboard-response","358","3855599","0.0-11.0-1.173","113","2022-3-30","13:40:39","0","18","[""White""]","No","Female","4222398","","","","","","","","239","113","113","25","33","",""
"1290","8","rating","canvas-keyboard-response","359","3856899","0.0-11.0-0.174","113","2022-3-30","13:40:39","0","18","[""White""]","No","Female","4222398","","","","","","","","240","113","140","25","33","1",""
"null","null","clear_screen","canvas-keyboard-response","360","3857160","0.0-11.0-1.174","113","2022-3-30","13:40:39","0","18","[""White""]","No","Female","4222398","","","","","","","","240","113","140","25","33","",""
"1512","3","rating","canvas-keyboard-response","361","3858683","0.0-11.0-0.175","113","2022-3-30","13:40:39","0","18","[""White""]","No","Female","4222398","","","","","","","","47","57","140","10","40","0",""
"null","null","clear_screen","canvas-keyboard-response","362","3858943","0.0-11.0-1.175","113","2022-3-30","13:40:39","0","18","[""White""]","No","Female","4222398","","","","","","","","47","57","140","10","40","",""
"1625","4","rating","canvas-keyboard-response","363","3860580","0.0-11.0-0.176","113","2022-3-30","13:40:39","0","18","[""White""]","No","Female","4222398","","","","","","","","267","57","140","33","33","0",""
"null","null","clear_screen","canvas-keyboard-response","364","3860840","0.0-11.0-1.176","113","2022-3-30","13:40:39","0","18","[""White""]","No","Female","4222398","","","","","","","","267","57","140","33","33","",""
"1095","3","rating","canvas-keyboard-response","365","3861947","0.0-11.0-0.177","113","2022-3-30","13:40:39","0","18","[""White""]","No","Female","4222398","","","","","","","","37","57","140","10","25","1",""
"null","null","clear_screen","canvas-keyboard-response","366","3862207","0.0-11.0-1.177","113","2022-3-30","13:40:39","0","18","[""White""]","No","Female","4222398","","","","","","","","37","57","140","10","25","",""
"1488","9","rating","canvas-keyboard-response","367","3863708","0.0-11.0-0.178","113","2022-3-30","13:40:39","0","18","[""White""]","No","Female","4222398","","","","","","","","152","85","85","17","25","1",""
"null","null","clear_screen","canvas-keyboard-response","368","3863967","0.0-11.0-1.178","113","2022-3-30","13:40:39","0","18","[""White""]","No","Female","4222398","","","","","","","","152","85","85","17","25","",""
"1696","3","rating","canvas-keyboard-response","369","3865675","0.0-11.0-0.179","113","2022-3-30","13:40:39","0","18","[""White""]","No","Female","4222398","","","","","","","","132","57","140","17","17","1",""
"null","null","clear_screen","canvas-keyboard-response","370","3865935","0.0-11.0-1.179","113","2022-3-30","13:40:39","0","18","[""White""]","No","Female","4222398","","","","","","","","132","57","140","17","17","",""
"946","3","rating","canvas-keyboard-response","371","3866891","0.0-11.0-0.180","113","2022-3-30","13:40:39","0","18","[""White""]","No","Female","4222398","","","","","","","","36","57","113","10","25","1",""
"null","null","clear_screen","canvas-keyboard-response","372","3867151","0.0-11.0-1.180","113","2022-3-30","13:40:39","0","18","[""White""]","No","Female","4222398","","","","","","","","36","57","113","10","25","",""
"2189","2","rating","canvas-keyboard-response","373","3869356","0.0-11.0-0.181","113","2022-3-30","13:40:39","0","18","[""White""]","No","Female","4222398","","","","","","","","81","113","30","10","33","0",""
"null","null","clear_screen","canvas-keyboard-response","374","3869615","0.0-11.0-1.181","113","2022-3-30","13:40:39","0","18","[""White""]","No","Female","4222398","","","","","","","","81","113","30","10","33","",""
"1457","9","rating","canvas-keyboard-response","375","3871083","0.0-11.0-0.182","113","2022-3-30","13:40:39","0","18","[""White""]","No","Female","4222398","","","","","","","","300","113","140","40","40","1",""
"null","null","clear_screen","canvas-keyboard-response","376","3871342","0.0-11.0-1.182","113","2022-3-30","13:40:39","0","18","[""White""]","No","Female","4222398","","","","","","","","300","113","140","40","40","",""
"1906","6","rating","canvas-keyboard-response","377","3873259","0.0-11.0-0.183","113","2022-3-30","13:40:39","0","18","[""White""]","No","Female","4222398","","","","","","","","299","85","140","40","40","0",""
"null","null","clear_screen","canvas-keyboard-response","378","3873517","0.0-11.0-1.183","113","2022-3-30","13:40:39","0","18","[""White""]","No","Female","4222398","","","","","","","","299","85","140","40","40","",""
"1386","9","rating","canvas-keyboard-response","379","3874915","0.0-11.0-0.184","113","2022-3-30","13:40:39","0","18","[""White""]","No","Female","4222398","","","","","","","","52","85","85","10","17","1",""
"null","null","clear_screen","canvas-keyboard-response","380","3875174","0.0-11.0-1.184","113","2022-3-30","13:40:39","0","18","[""White""]","No","Female","4222398","","","","","","","","52","85","85","10","17","",""
"2249","7","rating","canvas-keyboard-response","381","3877435","0.0-11.0-0.185","113","2022-3-30","13:40:39","0","18","[""White""]","No","Female","4222398","","","","","","","","243","113","85","25","40","1",""
"null","null","clear_screen","canvas-keyboard-response","382","3877694","0.0-11.0-1.185","113","2022-3-30","13:40:39","0","18","[""White""]","No","Female","4222398","","","","","","","","243","113","85","25","40","",""
"1056","8","rating","canvas-keyboard-response","383","3878763","0.0-11.0-0.186","113","2022-3-30","13:40:39","0","18","[""White""]","No","Female","4222398","","","","","","","","148","85","113","17","17","1",""
"null","null","clear_screen","canvas-keyboard-response","384","3879022","0.0-11.0-1.186","113","2022-3-30","13:40:39","0","18","[""White""]","No","Female","4222398","","","","","","","","148","85","113","17","17","",""
"1146","3","rating","canvas-keyboard-response","385","3880179","0.0-11.0-0.187","113","2022-3-30","13:40:39","0","18","[""White""]","No","Female","4222398","","","","","","","","155","85","30","17","33","1",""
"null","null","clear_screen","canvas-keyboard-response","386","3880438","0.0-11.0-1.187","113","2022-3-30","13:40:39","0","18","[""White""]","No","Female","4222398","","","","","","","","155","85","30","17","33","",""
"1107","3","rating","canvas-keyboard-response","387","3881556","0.0-11.0-0.188","113","2022-3-30","13:40:39","0","18","[""White""]","No","Female","4222398","","","","","","","","4","30","140","10","10","1",""
"null","null","clear_screen","canvas-keyboard-response","388","3881814","0.0-11.0-1.188","113","2022-3-30","13:40:39","0","18","[""White""]","No","Female","4222398","","","","","","","","4","30","140","10","10","",""
"2032","2","rating","canvas-keyboard-response","389","3883859","0.0-11.0-0.189","113","2022-3-30","13:40:39","0","18","[""White""]","No","Female","4222398","","","","","","","","128","30","113","17","40","1",""
"null","null","clear_screen","canvas-keyboard-response","390","3884118","0.0-11.0-1.189","113","2022-3-30","13:40:39","0","18","[""White""]","No","Female","4222398","","","","","","","","128","30","113","17","40","",""
"2267","5","rating","canvas-keyboard-response","391","3886395","0.0-11.0-0.190","113","2022-3-30","13:40:39","0","18","[""White""]","No","Female","4222398","","","","","","","","136","57","113","17","25","1",""
"null","null","clear_screen","canvas-keyboard-response","392","3886654","0.0-11.0-1.190","113","2022-3-30","13:40:39","0","18","[""White""]","No","Female","4222398","","","","","","","","136","57","113","17","25","",""
"18425","5","rating","canvas-keyboard-response","393","3905091","0.0-11.0-0.191","113","2022-3-30","13:40:39","0","18","[""White""]","No","Female","4222398","","","","","","","","217","57","140","25","33","0",""
"null","null","clear_screen","canvas-keyboard-response","394","3905350","0.0-11.0-1.191","113","2022-3-30","13:40:39","0","18","[""White""]","No","Female","4222398","","","","","","","","217","57","140","25","33","",""
"1834","5","rating","canvas-keyboard-response","395","3907195","0.0-11.0-0.192","113","2022-3-30","13:40:39","0","18","[""White""]","No","Female","4222398","","","","","","","","119","30","140","17","25","0",""
"null","null","clear_screen","canvas-keyboard-response","396","3907454","0.0-11.0-1.192","113","2022-3-30","13:40:39","0","18","[""White""]","No","Female","4222398","","","","","","","","119","30","140","17","25","",""
"2818","4","rating","canvas-keyboard-response","397","3910283","0.0-11.0-0.193","113","2022-3-30","13:40:39","0","18","[""White""]","No","Female","4222398","","","","","","","","56","85","57","10","25","0",""
"null","null","clear_screen","canvas-keyboard-response","398","3910542","0.0-11.0-1.193","113","2022-3-30","13:40:39","0","18","[""White""]","No","Female","4222398","","","","","","","","56","85","57","10","25","",""
"2714","6","rating","canvas-keyboard-response","399","3913266","0.0-11.0-0.194","113","2022-3-30","13:40:39","0","18","[""White""]","No","Female","4222398","","","","","","","","156","85","57","17","33","1",""
"null","null","clear_screen","canvas-keyboard-response","400","3913526","0.0-11.0-1.194","113","2022-3-30","13:40:39","0","18","[""White""]","No","Female","4222398","","","","","","","","156","85","57","17","33","",""
"1506","9","rating","canvas-keyboard-response","401","3915043","0.0-11.0-0.195","113","2022-3-30","13:40:39","0","18","[""White""]","No","Female","4222398","","","","","","","","290","140","140","33","40","1",""
"null","null","clear_screen","canvas-keyboard-response","402","3915303","0.0-11.0-1.195","113","2022-3-30","13:40:39","0","18","[""White""]","No","Female","4222398","","","","","","","","290","140","140","33","40","",""
"1529","7","rating","canvas-keyboard-response","403","3916844","0.0-11.0-0.196","113","2022-3-30","13:40:39","0","18","[""White""]","No","Female","4222398","","","","","","","","268","57","30","33","40","0",""
"null","null","clear_screen","canvas-keyboard-response","404","3917107","0.0-11.0-1.196","113","2022-3-30","13:40:39","0","18","[""White""]","No","Female","4222398","","","","","","","","268","57","30","33","40","",""
"1336","6","rating","canvas-keyboard-response","405","3918460","0.0-11.0-0.197","113","2022-3-30","13:40:39","0","18","[""White""]","No","Female","4222398","","","","","","","","167","113","57","17","25","0",""
"null","null","clear_screen","canvas-keyboard-response","406","3918719","0.0-11.0-1.197","113","2022-3-30","13:40:39","0","18","[""White""]","No","Female","4222398","","","","","","","","167","113","57","17","25","",""
"2824","5","rating","canvas-keyboard-response","407","3921555","0.0-11.0-0.198","113","2022-3-30","13:40:39","0","18","[""White""]","No","Female","4222398","","","","","","","","294","30","140","40","40","0",""
"null","null","clear_screen","canvas-keyboard-response","408","3921816","0.0-11.0-1.198","113","2022-3-30","13:40:39","0","18","[""White""]","No","Female","4222398","","","","","","","","294","30","140","40","40","",""
"1101","4","rating","canvas-keyboard-response","409","3922931","0.0-11.0-0.199","113","2022-3-30","13:40:39","0","18","[""White""]","No","Female","4222398","","","","","","","","263","30","113","33","40","0",""
"null","null","clear_screen","canvas-keyboard-response","410","3923191","0.0-11.0-1.199","113","2022-3-30","13:40:39","0","18","[""White""]","No","Female","4222398","","","","","","","","263","30","113","33","40","",""
"2321","6","rating","canvas-keyboard-response","411","3925523","0.0-11.0-0.200","113","2022-3-30","13:40:39","0","18","[""White""]","No","Female","4222398","","","","","","","","140","57","85","17","33","1",""
"null","null","clear_screen","canvas-keyboard-response","412","3925782","0.0-11.0-1.200","113","2022-3-30","13:40:39","0","18","[""White""]","No","Female","4222398","","","","","","","","140","57","85","17","33","",""
"1825","8","rating","canvas-keyboard-response","413","3927620","0.0-11.0-0.201","113","2022-3-30","13:40:39","0","18","[""White""]","No","Female","4222398","","","","","","","","278","85","113","33","40","1",""
"null","null","clear_screen","canvas-keyboard-response","414","3927879","0.0-11.0-1.201","113","2022-3-30","13:40:39","0","18","[""White""]","No","Female","4222398","","","","","","","","278","85","113","33","40","",""
"1839","5","rating","canvas-keyboard-response","415","3929731","0.0-11.0-0.202","113","2022-3-30","13:40:39","0","18","[""White""]","No","Female","4222398","","","","","","","","266","57","113","33","33","0",""
"null","null","clear_screen","canvas-keyboard-response","416","3929991","0.0-11.0-1.202","113","2022-3-30","13:40:39","0","18","[""White""]","No","Female","4222398","","","","","","","","266","57","113","33","33","",""
"3441","9","rating","canvas-keyboard-response","417","3933443","0.0-11.0-0.203","113","2022-3-30","13:40:39","0","18","[""White""]","No","Female","4222398","","","","","","","","115","30","30","17","25","1",""
"null","null","clear_screen","canvas-keyboard-response","418","3933703","0.0-11.0-1.203","113","2022-3-30","13:40:39","0","18","[""White""]","No","Female","4222398","","","","","","","","115","30","30","17","25","",""
"3239","3","rating","canvas-keyboard-response","419","3936955","0.0-11.0-0.204","113","2022-3-30","13:40:39","0","18","[""White""]","No","Female","4222398","","","","","","","","247","140","57","25","33","1",""
"null","null","clear_screen","canvas-keyboard-response","420","3937213","0.0-11.0-1.204","113","2022-3-30","13:40:39","0","18","[""White""]","No","Female","4222398","","","","","","","","247","140","57","25","33","",""
"2633","4","rating","canvas-keyboard-response","421","3939859","0.0-11.0-0.205","113","2022-3-30","13:40:39","0","18","[""White""]","No","Female","4222398","","","","","","","","91","140","30","10","17","1",""
"null","null","clear_screen","canvas-keyboard-response","422","3940118","0.0-11.0-1.205","113","2022-3-30","13:40:39","0","18","[""White""]","No","Female","4222398","","","","","","","","91","140","30","10","17","",""
"3202","7","rating","canvas-keyboard-response","423","3943332","0.0-11.0-0.206","113","2022-3-30","13:40:39","0","18","[""White""]","No","Female","4222398","","","","","","","","224","85","140","25","25","1",""
"null","null","clear_screen","canvas-keyboard-response","424","3943591","0.0-11.0-1.206","113","2022-3-30","13:40:39","0","18","[""White""]","No","Female","4222398","","","","","","","","224","85","140","25","25","",""
"8879","7","rating","canvas-keyboard-response","425","3952483","0.0-11.0-0.207","113","2022-3-30","13:40:39","0","18","[""White""]","No","Female","4222398","","","","","","","","150","85","30","17","25","0",""
"null","null","clear_screen","canvas-keyboard-response","426","3952741","0.0-11.0-1.207","113","2022-3-30","13:40:39","0","18","[""White""]","No","Female","4222398","","","","","","","","150","85","30","17","25","",""
"4657","1","rating","canvas-keyboard-response","427","3957412","0.0-11.0-0.208","113","2022-3-30","13:40:39","0","18","[""White""]","No","Female","4222398","","","","","","","","24","30","140","10","40","0",""
"null","null","clear_screen","canvas-keyboard-response","428","3957673","0.0-11.0-1.208","113","2022-3-30","13:40:39","0","18","[""White""]","No","Female","4222398","","","","","","","","24","30","140","10","40","",""
"2305","1","rating","canvas-keyboard-response","429","3959994","0.0-11.0-0.209","113","2022-3-30","13:40:39","0","18","[""White""]","No","Female","4222398","","","","","","","","66","85","57","10","40","0",""
"null","null","clear_screen","canvas-keyboard-response","430","3960255","0.0-11.0-1.209","113","2022-3-30","13:40:39","0","18","[""White""]","No","Female","4222398","","","","","","","","66","85","57","10","40","",""
"4759","2","rating","canvas-keyboard-response","431","3965027","0.0-11.0-0.210","113","2022-3-30","13:40:39","0","18","[""White""]","No","Female","4222398","","","","","","","","181","140","30","17","25","1",""
"null","null","clear_screen","canvas-keyboard-response","432","3965287","0.0-11.0-1.210","113","2022-3-30","13:40:39","0","18","[""White""]","No","Female","4222398","","","","","","","","181","140","30","17","25","",""
"1623","7","rating","canvas-keyboard-response","433","3966923","0.0-11.0-0.211","113","2022-3-30","13:40:39","0","18","[""White""]","No","Female","4222398","","","","","","","","274","85","140","33","33","0",""
"null","null","clear_screen","canvas-keyboard-response","434","3967182","0.0-11.0-1.211","113","2022-3-30","13:40:39","0","18","[""White""]","No","Female","4222398","","","","","","","","274","85","140","33","33","",""
"1136","7","rating","canvas-keyboard-response","435","3968331","0.0-11.0-0.212","113","2022-3-30","13:40:39","0","18","[""White""]","No","Female","4222398","","","","","","","","289","140","113","33","40","1",""
"null","null","clear_screen","canvas-keyboard-response","436","3968591","0.0-11.0-1.212","113","2022-3-30","13:40:39","0","18","[""White""]","No","Female","4222398","","","","","","","","289","140","113","33","40","",""
"1472","7","rating","canvas-keyboard-response","437","3970075","0.0-11.0-0.213","113","2022-3-30","13:40:39","0","18","[""White""]","No","Female","4222398","","","","","","","","109","140","113","10","40","0",""
"null","null","clear_screen","canvas-keyboard-response","438","3970336","0.0-11.0-1.213","113","2022-3-30","13:40:39","0","18","[""White""]","No","Female","4222398","","","","","","","","109","140","113","10","40","",""
"927","7","rating","canvas-keyboard-response","439","3971275","0.0-11.0-0.214","113","2022-3-30","13:40:39","0","18","[""White""]","No","Female","4222398","","","","","","","","194","140","113","17","40","0",""
"null","null","clear_screen","canvas-keyboard-response","440","3971534","0.0-11.0-1.214","113","2022-3-30","13:40:39","0","18","[""White""]","No","Female","4222398","","","","","","","","194","140","113","17","40","",""
"2104","7","rating","canvas-keyboard-response","441","3973650","0.0-11.0-0.215","113","2022-3-30","13:40:39","0","18","[""White""]","No","Female","4222398","","","","","","","","122","30","85","17","33","0",""
"null","null","clear_screen","canvas-keyboard-response","442","3973911","0.0-11.0-1.215","113","2022-3-30","13:40:39","0","18","[""White""]","No","Female","4222398","","","","","","","","122","30","85","17","33","",""
"19511","4","rating","canvas-keyboard-response","443","3993436","0.0-11.0-0.216","113","2022-3-30","13:40:39","0","18","[""White""]","No","Female","4222398","","","","","","","","127","30","85","17","40","1",""
"null","null","clear_screen","canvas-keyboard-response","444","3993699","0.0-11.0-1.216","113","2022-3-30","13:40:39","0","18","[""White""]","No","Female","4222398","","","","","","","","127","30","85","17","40","",""
"1705","6","rating","canvas-keyboard-response","445","3995419","0.0-11.0-0.217","113","2022-3-30","13:40:39","0","18","[""White""]","No","Female","4222398","","","","","","","","84","113","113","10","33","0",""
"null","null","clear_screen","canvas-keyboard-response","446","3995679","0.0-11.0-1.217","113","2022-3-30","13:40:39","0","18","[""White""]","No","Female","4222398","","","","","","","","84","113","113","10","33","",""
"1239","8","rating","canvas-keyboard-response","447","3996931","0.0-11.0-0.218","113","2022-3-30","13:40:39","0","18","[""White""]","No","Female","4222398","","","","","","","","280","113","140","33","33","1",""
"null","null","clear_screen","canvas-keyboard-response","448","3997193","0.0-11.0-1.218","113","2022-3-30","13:40:39","0","18","[""White""]","No","Female","4222398","","","","","","","","280","113","140","33","33","",""
"1109","8","rating","canvas-keyboard-response","449","3998315","0.0-11.0-0.219","113","2022-3-30","13:40:39","0","18","[""White""]","No","Female","4222398","","","","","","","","169","113","113","17","25","0",""
"null","null","clear_screen","canvas-keyboard-response","450","3998575","0.0-11.0-1.219","113","2022-3-30","13:40:39","0","18","[""White""]","No","Female","4222398","","","","","","","","169","113","113","17","25","",""
"1489","3","rating","canvas-keyboard-response","451","4000075","0.0-11.0-0.220","113","2022-3-30","13:40:39","0","18","[""White""]","No","Female","4222398","","","","","","","","102","140","57","10","33","1",""
"null","null","clear_screen","canvas-keyboard-response","452","4000334","0.0-11.0-1.220","113","2022-3-30","13:40:39","0","18","[""White""]","No","Female","4222398","","","","","","","","102","140","57","10","33","",""
"2249","3","rating","canvas-keyboard-response","453","4002594","0.0-11.0-0.221","113","2022-3-30","13:40:39","0","18","[""White""]","No","Female","4222398","","","","","","","","29","57","57","10","17","0",""
"null","null","clear_screen","canvas-keyboard-response","454","4002855","0.0-11.0-1.221","113","2022-3-30","13:40:39","0","18","[""White""]","No","Female","4222398","","","","","","","","29","57","57","10","17","",""
"1712","3","rating","canvas-keyboard-response","455","4004579","0.0-11.0-0.222","113","2022-3-30","13:40:39","0","18","[""White""]","No","Female","4222398","","","","","","","","272","57","140","33","40","0",""
"null","null","clear_screen","canvas-keyboard-response","456","4004839","0.0-11.0-1.222","113","2022-3-30","13:40:39","0","18","[""White""]","No","Female","4222398","","","","","","","","272","57","140","33","40","",""
"2687","7","rating","canvas-keyboard-response","457","4007538","0.0-11.0-0.223","113","2022-3-30","13:40:39","0","18","[""White""]","No","Female","4222398","","","","","","","","157","85","85","17","33","0",""
"null","null","clear_screen","canvas-keyboard-response","458","4007798","0.0-11.0-1.223","113","2022-3-30","13:40:39","0","18","[""White""]","No","Female","4222398","","","","","","","","157","85","85","17","33","",""
"1456","3","rating","canvas-keyboard-response","459","4009267","0.0-11.0-0.224","113","2022-3-30","13:40:39","0","18","[""White""]","No","Female","4222398","","","","","","","","68","85","113","10","40","0",""
"null","null","clear_screen","canvas-keyboard-response","460","4009526","0.0-11.0-1.224","113","2022-3-30","13:40:39","0","18","[""White""]","No","Female","4222398","","","","","","","","68","85","113","10","40","",""
