"rt","response","trialType","trial_type","trial_index","time_elapsed","internal_node_id","sub_n","date","time","leftRight","age","race","ethnicity","gender","exp_duration","success","timeout","failed_images","failed_audio","failed_video","stimulus","view_history","trialID","radius_a","radius_b","angle_a","angle_b","lrCond","question_order"
"51746","{""response"":""106""}","enter-sub-number","survey-html-form","0","51756","0.0-0.0","106","2022-3-23","15:34:24","1","20","[""White""]","No","Female","1075205","","","","","","","","","","","","","",""
"","","","fullscreen","1","55391","0.0-1.0","106","2022-3-23","15:34:24","1","20","[""White""]","No","Female","1075205","true","","","","","","","","","","","","",""
"","","","preload","2","55407","0.0-2.0","106","2022-3-23","15:34:24","1","20","[""White""]","No","Female","1075205","true","false","[]","[]","[]","","","","","","","","",""
"13655","0","","html-button-response","3","69065","0.0-3.0","106","2022-3-23","15:34:24","1","20","[""White""]","No","Female","1075205","","","","","","<div style= ""font-size:25px;"" <p> <strong> Welcome to the experiment! </strong><br> <p style=""color:#8B0000; font-size:25px;""><strong> Please do NOT exit full screen until you are done with the experiment. </strong> </p><p style=""font-size:25px;color:#8B0000;""> <strong> The experiment will be canceled and your data will be lost <br> if you try to go back or refresh the page at any point during the experiment.</strong> </p><br><p> <strong> Thanks in advance for your contribution to our research! </strong></p>","","","","","","","",""
"16487","","","instructions","4","85559","0.0-4.0","106","2022-3-23","15:34:24","1","20","[""White""]","No","Female","1075205","","","","","","","[{""page_index"":0,""viewing_time"":4728},{""page_index"":1,""viewing_time"":3839},{""page_index"":2,""viewing_time"":7920}]","","","","","","",""
"null","null","presentPop","canvas-keyboard-response","5","101577","0.0-5.0","106","2022-3-23","15:34:24","1","20","[""White""]","No","Female","1075205","","","","","","","","","","","","","",""
"null","null","clear_screen","canvas-keyboard-response","6","102345","0.0-6.0","106","2022-3-23","15:34:24","1","20","[""White""]","No","Female","1075205","","","","","","","","","","","","","",""
"2684","","","instructions","7","105031","0.0-7.0","106","2022-3-23","15:34:24","1","20","[""White""]","No","Female","1075205","","","","","","","[{""page_index"":0,""viewing_time"":2684}]","","","","","","",""
"null","null","presentPop","canvas-keyboard-response","8","121044","0.0-8.0","106","2022-3-23","15:34:24","1","20","[""White""]","No","Female","1075205","","","","","","","","","","","","","",""
"null","null","clear_screen","canvas-keyboard-response","9","121808","0.0-9.0","106","2022-3-23","15:34:24","1","20","[""White""]","No","Female","1075205","","","","","","","","","","","","","",""
"13373","","","instructions","10","135184","0.0-10.0","106","2022-3-23","15:34:24","1","20","[""White""]","No","Female","1075205","","","","","","","[{""page_index"":0,""viewing_time"":7005},{""page_index"":1,""viewing_time"":6368}]","","","","","","",""
"3215","1","rating","canvas-keyboard-response","11","139416","0.0-11.0-0.0","106","2022-3-23","15:34:24","1","20","[""White""]","No","Female","1075205","","","","","","","","81","113","30","10","33","1",""
"null","null","clear_screen","canvas-keyboard-response","12","139677","0.0-11.0-1.0","106","2022-3-23","15:34:24","1","20","[""White""]","No","Female","1075205","","","","","","","","81","113","30","10","33","",""
"5159","7","rating","canvas-keyboard-response","13","144846","0.0-11.0-0.1","106","2022-3-23","15:34:24","1","20","[""White""]","No","Female","1075205","","","","","","","","261","30","57","33","40","0",""
"null","null","clear_screen","canvas-keyboard-response","14","145108","0.0-11.0-1.1","106","2022-3-23","15:34:24","1","20","[""White""]","No","Female","1075205","","","","","","","","261","30","57","33","40","",""
"3517","7","rating","canvas-keyboard-response","15","148639","0.0-11.0-0.2","106","2022-3-23","15:34:24","1","20","[""White""]","No","Female","1075205","","","","","","","","202","30","85","25","33","1",""
"null","null","clear_screen","canvas-keyboard-response","16","148899","0.0-11.0-1.2","106","2022-3-23","15:34:24","1","20","[""White""]","No","Female","1075205","","","","","","","","202","30","85","25","33","",""
"2428","8","rating","canvas-keyboard-response","17","151342","0.0-11.0-0.3","106","2022-3-23","15:34:24","1","20","[""White""]","No","Female","1075205","","","","","","","","138","57","30","17","33","0",""
"null","null","clear_screen","canvas-keyboard-response","18","151604","0.0-11.0-1.3","106","2022-3-23","15:34:24","1","20","[""White""]","No","Female","1075205","","","","","","","","138","57","30","17","33","",""
"2919","8","rating","canvas-keyboard-response","19","154535","0.0-11.0-0.4","106","2022-3-23","15:34:24","1","20","[""White""]","No","Female","1075205","","","","","","","","154","85","140","17","25","1",""
"null","null","clear_screen","canvas-keyboard-response","20","154795","0.0-11.0-1.4","106","2022-3-23","15:34:24","1","20","[""White""]","No","Female","1075205","","","","","","","","154","85","140","17","25","",""
"5910","8","rating","canvas-keyboard-response","21","160718","0.0-11.0-0.5","106","2022-3-23","15:34:24","1","20","[""White""]","No","Female","1075205","","","","","","","","151","85","57","17","25","1",""
"null","null","clear_screen","canvas-keyboard-response","22","160979","0.0-11.0-1.5","106","2022-3-23","15:34:24","1","20","[""White""]","No","Female","1075205","","","","","","","","151","85","57","17","25","",""
"4904","7","rating","canvas-keyboard-response","23","165894","0.0-11.0-0.6","106","2022-3-23","15:34:24","1","20","[""White""]","No","Female","1075205","","","","","","","","211","57","113","25","25","1",""
"null","null","clear_screen","canvas-keyboard-response","24","166156","0.0-11.0-1.6","106","2022-3-23","15:34:24","1","20","[""White""]","No","Female","1075205","","","","","","","","211","57","113","25","25","",""
"2188","8","rating","canvas-keyboard-response","25","168359","0.0-11.0-0.7","106","2022-3-23","15:34:24","1","20","[""White""]","No","Female","1075205","","","","","","","","135","57","85","17","25","1",""
"null","null","clear_screen","canvas-keyboard-response","26","168620","0.0-11.0-1.7","106","2022-3-23","15:34:24","1","20","[""White""]","No","Female","1075205","","","","","","","","135","57","85","17","25","",""
"1462","8","rating","canvas-keyboard-response","27","170095","0.0-11.0-0.8","106","2022-3-23","15:34:24","1","20","[""White""]","No","Female","1075205","","","","","","","","189","140","113","17","33","0",""
"null","null","clear_screen","canvas-keyboard-response","28","170357","0.0-11.0-1.8","106","2022-3-23","15:34:24","1","20","[""White""]","No","Female","1075205","","","","","","","","189","140","113","17","33","",""
"1882","6","rating","canvas-keyboard-response","29","172255","0.0-11.0-0.9","106","2022-3-23","15:34:24","1","20","[""White""]","No","Female","1075205","","","","","","","","299","85","140","40","40","0",""
"null","null","clear_screen","canvas-keyboard-response","30","172515","0.0-11.0-1.9","106","2022-3-23","15:34:24","1","20","[""White""]","No","Female","1075205","","","","","","","","299","85","140","40","40","",""
"1070","7","rating","canvas-keyboard-response","31","173599","0.0-11.0-0.10","106","2022-3-23","15:34:24","1","20","[""White""]","No","Female","1075205","","","","","","","","210","57","85","25","25","0",""
"null","null","clear_screen","canvas-keyboard-response","32","173858","0.0-11.0-1.10","106","2022-3-23","15:34:24","1","20","[""White""]","No","Female","1075205","","","","","","","","210","57","85","25","25","",""
"2022","8","rating","canvas-keyboard-response","33","175894","0.0-11.0-0.11","106","2022-3-23","15:34:24","1","20","[""White""]","No","Female","1075205","","","","","","","","184","140","113","17","25","1",""
"null","null","clear_screen","canvas-keyboard-response","34","176155","0.0-11.0-1.11","106","2022-3-23","15:34:24","1","20","[""White""]","No","Female","1075205","","","","","","","","184","140","113","17","25","",""
"2030","6","rating","canvas-keyboard-response","35","178198","0.0-11.0-0.12","106","2022-3-23","15:34:24","1","20","[""White""]","No","Female","1075205","","","","","","","","126","30","57","17","40","1",""
"null","null","clear_screen","canvas-keyboard-response","36","178458","0.0-11.0-1.12","106","2022-3-23","15:34:24","1","20","[""White""]","No","Female","1075205","","","","","","","","126","30","57","17","40","",""
"2430","8","rating","canvas-keyboard-response","37","180903","0.0-11.0-0.13","106","2022-3-23","15:34:24","1","20","[""White""]","No","Female","1075205","","","","","","","","94","140","113","10","17","0",""
"null","null","clear_screen","canvas-keyboard-response","38","181163","0.0-11.0-1.13","106","2022-3-23","15:34:24","1","20","[""White""]","No","Female","1075205","","","","","","","","94","140","113","10","17","",""
"1605","7","rating","canvas-keyboard-response","39","182782","0.0-11.0-0.14","106","2022-3-23","15:34:24","1","20","[""White""]","No","Female","1075205","","","","","","","","173","113","85","17","33","0",""
"null","null","clear_screen","canvas-keyboard-response","40","183042","0.0-11.0-1.14","106","2022-3-23","15:34:24","1","20","[""White""]","No","Female","1075205","","","","","","","","173","113","85","17","33","",""
"7895","8","rating","canvas-keyboard-response","41","190950","0.0-11.0-0.15","106","2022-3-23","15:34:24","1","20","[""White""]","No","Female","1075205","","","","","","","","145","57","85","17","40","1",""
"null","null","clear_screen","canvas-keyboard-response","42","191212","0.0-11.0-1.15","106","2022-3-23","15:34:24","1","20","[""White""]","No","Female","1075205","","","","","","","","145","57","85","17","40","",""
"2590","4","rating","canvas-keyboard-response","43","193814","0.0-11.0-0.16","106","2022-3-23","15:34:24","1","20","[""White""]","No","Female","1075205","","","","","","","","18","30","113","10","33","1",""
"null","null","clear_screen","canvas-keyboard-response","44","194075","0.0-11.0-1.16","106","2022-3-23","15:34:24","1","20","[""White""]","No","Female","1075205","","","","","","","","18","30","113","10","33","",""
"2383","8","rating","canvas-keyboard-response","45","196470","0.0-11.0-0.17","106","2022-3-23","15:34:24","1","20","[""White""]","No","Female","1075205","","","","","","","","53","85","113","10","17","1",""
"null","null","clear_screen","canvas-keyboard-response","46","196729","0.0-11.0-1.17","106","2022-3-23","15:34:24","1","20","[""White""]","No","Female","1075205","","","","","","","","53","85","113","10","17","",""
"2222","9","rating","canvas-keyboard-response","47","198966","0.0-11.0-0.18","106","2022-3-23","15:34:24","1","20","[""White""]","No","Female","1075205","","","","","","","","29","57","57","10","17","1",""
"null","null","clear_screen","canvas-keyboard-response","48","199222","0.0-11.0-1.18","106","2022-3-23","15:34:24","1","20","[""White""]","No","Female","1075205","","","","","","","","29","57","57","10","17","",""
"3874","7","rating","canvas-keyboard-response","49","203111","0.0-11.0-0.19","106","2022-3-23","15:34:24","1","20","[""White""]","No","Female","1075205","","","","","","","","89","113","113","10","40","1",""
"null","null","clear_screen","canvas-keyboard-response","50","203370","0.0-11.0-1.19","106","2022-3-23","15:34:24","1","20","[""White""]","No","Female","1075205","","","","","","","","89","113","113","10","40","",""
"4833","3","rating","canvas-keyboard-response","51","208214","0.0-11.0-0.20","106","2022-3-23","15:34:24","1","20","[""White""]","No","Female","1075205","","","","","","","","143","57","30","17","40","0",""
"null","null","clear_screen","canvas-keyboard-response","52","208477","0.0-11.0-1.20","106","2022-3-23","15:34:24","1","20","[""White""]","No","Female","1075205","","","","","","","","143","57","30","17","40","",""
"1963","6","rating","canvas-keyboard-response","53","210454","0.0-11.0-0.21","106","2022-3-23","15:34:24","1","20","[""White""]","No","Female","1075205","","","","","","","","262","30","85","33","40","0",""
"null","null","clear_screen","canvas-keyboard-response","54","210715","0.0-11.0-1.21","106","2022-3-23","15:34:24","1","20","[""White""]","No","Female","1075205","","","","","","","","262","30","85","33","40","",""
"7041","6","rating","canvas-keyboard-response","55","217768","0.0-11.0-0.22","106","2022-3-23","15:34:24","1","20","[""White""]","No","Female","1075205","","","","","","","","221","57","113","25","40","1",""
"null","null","clear_screen","canvas-keyboard-response","56","218029","0.0-11.0-1.22","106","2022-3-23","15:34:24","1","20","[""White""]","No","Female","1075205","","","","","","","","221","57","113","25","40","",""
"3388","9","rating","canvas-keyboard-response","57","221430","0.0-11.0-0.23","106","2022-3-23","15:34:24","1","20","[""White""]","No","Female","1075205","","","","","","","","214","57","57","25","33","1",""
"null","null","clear_screen","canvas-keyboard-response","58","221690","0.0-11.0-1.23","106","2022-3-23","15:34:24","1","20","[""White""]","No","Female","1075205","","","","","","","","214","57","57","25","33","",""
"3480","7","rating","canvas-keyboard-response","59","225183","0.0-11.0-0.24","106","2022-3-23","15:34:24","1","20","[""White""]","No","Female","1075205","","","","","","","","136","57","113","17","25","1",""
"null","null","clear_screen","canvas-keyboard-response","60","225446","0.0-11.0-1.24","106","2022-3-23","15:34:24","1","20","[""White""]","No","Female","1075205","","","","","","","","136","57","113","17","25","",""
"1846","7","rating","canvas-keyboard-response","61","227303","0.0-11.0-0.25","106","2022-3-23","15:34:24","1","20","[""White""]","No","Female","1075205","","","","","","","","229","85","140","25","33","1",""
"null","null","clear_screen","canvas-keyboard-response","62","227564","0.0-11.0-1.25","106","2022-3-23","15:34:24","1","20","[""White""]","No","Female","1075205","","","","","","","","229","85","140","25","33","",""
"1766","9","rating","canvas-keyboard-response","63","229343","0.0-11.0-0.26","106","2022-3-23","15:34:24","1","20","[""White""]","No","Female","1075205","","","","","","","","169","113","113","17","25","0",""
"null","null","clear_screen","canvas-keyboard-response","64","229602","0.0-11.0-1.26","106","2022-3-23","15:34:24","1","20","[""White""]","No","Female","1075205","","","","","","","","169","113","113","17","25","",""
"1830","8","rating","canvas-keyboard-response","65","231447","0.0-11.0-0.27","106","2022-3-23","15:34:24","1","20","[""White""]","No","Female","1075205","","","","","","","","148","85","113","17","17","1",""
"null","null","clear_screen","canvas-keyboard-response","66","231706","0.0-11.0-1.27","106","2022-3-23","15:34:24","1","20","[""White""]","No","Female","1075205","","","","","","","","148","85","113","17","17","",""
"3945","7","rating","canvas-keyboard-response","67","235663","0.0-11.0-0.28","106","2022-3-23","15:34:24","1","20","[""White""]","No","Female","1075205","","","","","","","","266","57","113","33","33","0",""
"null","null","clear_screen","canvas-keyboard-response","68","235922","0.0-11.0-1.28","106","2022-3-23","15:34:24","1","20","[""White""]","No","Female","1075205","","","","","","","","266","57","113","33","33","",""
"2074","8","rating","canvas-keyboard-response","69","238006","0.0-11.0-0.29","106","2022-3-23","15:34:24","1","20","[""White""]","No","Female","1075205","","","","","","","","205","30","30","25","40","0",""
"null","null","clear_screen","canvas-keyboard-response","70","238271","0.0-11.0-1.29","106","2022-3-23","15:34:24","1","20","[""White""]","No","Female","1075205","","","","","","","","205","30","30","25","40","",""
"2399","6","rating","canvas-keyboard-response","71","240686","0.0-11.0-0.30","106","2022-3-23","15:34:24","1","20","[""White""]","No","Female","1075205","","","","","","","","43","57","30","10","40","0",""
"null","null","clear_screen","canvas-keyboard-response","72","240946","0.0-11.0-1.30","106","2022-3-23","15:34:24","1","20","[""White""]","No","Female","1075205","","","","","","","","43","57","30","10","40","",""
"2450","8","rating","canvas-keyboard-response","73","243406","0.0-11.0-0.31","106","2022-3-23","15:34:24","1","20","[""White""]","No","Female","1075205","","","","","","","","48","85","113","10","10","1",""
"null","null","clear_screen","canvas-keyboard-response","74","243666","0.0-11.0-1.31","106","2022-3-23","15:34:24","1","20","[""White""]","No","Female","1075205","","","","","","","","48","85","113","10","10","",""
"1072","8","rating","canvas-keyboard-response","75","244752","0.0-11.0-0.32","106","2022-3-23","15:34:24","1","20","[""White""]","No","Female","1075205","","","","","","","","228","85","113","25","33","1",""
"null","null","clear_screen","canvas-keyboard-response","76","245011","0.0-11.0-1.32","106","2022-3-23","15:34:24","1","20","[""White""]","No","Female","1075205","","","","","","","","228","85","113","25","33","",""
"3961","7","rating","canvas-keyboard-response","77","248983","0.0-11.0-0.33","106","2022-3-23","15:34:24","1","20","[""White""]","No","Female","1075205","","","","","","","","288","140","85","33","40","1",""
"null","null","clear_screen","canvas-keyboard-response","78","249243","0.0-11.0-1.33","106","2022-3-23","15:34:24","1","20","[""White""]","No","Female","1075205","","","","","","","","288","140","85","33","40","",""
"3047","9","rating","canvas-keyboard-response","79","252303","0.0-11.0-0.34","106","2022-3-23","15:34:24","1","20","[""White""]","No","Female","1075205","","","","","","","","200","30","30","25","33","1",""
"null","null","clear_screen","canvas-keyboard-response","80","252560","0.0-11.0-1.34","106","2022-3-23","15:34:24","1","20","[""White""]","No","Female","1075205","","","","","","","","200","30","30","25","33","",""
"2481","7","rating","canvas-keyboard-response","81","255054","0.0-11.0-0.35","106","2022-3-23","15:34:24","1","20","[""White""]","No","Female","1075205","","","","","","","","40","57","85","10","33","1",""
"null","null","clear_screen","canvas-keyboard-response","82","255313","0.0-11.0-1.35","106","2022-3-23","15:34:24","1","20","[""White""]","No","Female","1075205","","","","","","","","40","57","85","10","33","",""
"3724","2","rating","canvas-keyboard-response","83","259046","0.0-11.0-0.36","106","2022-3-23","15:34:24","1","20","[""White""]","No","Female","1075205","","","","","","","","176","113","30","17","40","1",""
"null","null","clear_screen","canvas-keyboard-response","84","259309","0.0-11.0-1.36","106","2022-3-23","15:34:24","1","20","[""White""]","No","Female","1075205","","","","","","","","176","113","30","17","40","",""
"4273","7","rating","canvas-keyboard-response","85","263591","0.0-11.0-0.37","106","2022-3-23","15:34:24","1","20","[""White""]","No","Female","1075205","","","","","","","","111","30","57","17","17","0",""
"null","null","clear_screen","canvas-keyboard-response","86","263850","0.0-11.0-1.37","106","2022-3-23","15:34:24","1","20","[""White""]","No","Female","1075205","","","","","","","","111","30","57","17","17","",""
"3130","6","rating","canvas-keyboard-response","87","266991","0.0-11.0-0.38","106","2022-3-23","15:34:24","1","20","[""White""]","No","Female","1075205","","","","","","","","286","140","30","33","40","1",""
"null","null","clear_screen","canvas-keyboard-response","88","267249","0.0-11.0-1.38","106","2022-3-23","15:34:24","1","20","[""White""]","No","Female","1075205","","","","","","","","286","140","30","33","40","",""
"8731","7","rating","canvas-keyboard-response","89","275990","0.0-11.0-0.39","106","2022-3-23","15:34:24","1","20","[""White""]","No","Female","1075205","","","","","","","","121","30","57","17","33","0",""
"null","null","clear_screen","canvas-keyboard-response","90","276251","0.0-11.0-1.39","106","2022-3-23","15:34:24","1","20","[""White""]","No","Female","1075205","","","","","","","","121","30","57","17","33","",""
"1929","3","rating","canvas-keyboard-response","91","278190","0.0-11.0-0.40","106","2022-3-23","15:34:24","1","20","[""White""]","No","Female","1075205","","","","","","","","171","113","30","17","33","0",""
"null","null","clear_screen","canvas-keyboard-response","92","278451","0.0-11.0-1.40","106","2022-3-23","15:34:24","1","20","[""White""]","No","Female","1075205","","","","","","","","171","113","30","17","33","",""
"2695","5","rating","canvas-keyboard-response","93","281159","0.0-11.0-0.41","106","2022-3-23","15:34:24","1","20","[""White""]","No","Female","1075205","","","","","","","","20","30","30","10","40","1",""
"null","null","clear_screen","canvas-keyboard-response","94","281422","0.0-11.0-1.41","106","2022-3-23","15:34:24","1","20","[""White""]","No","Female","1075205","","","","","","","","20","30","30","10","40","",""
"2677","6","rating","canvas-keyboard-response","95","284110","0.0-11.0-0.42","106","2022-3-23","15:34:24","1","20","[""White""]","No","Female","1075205","","","","","","","","159","85","140","17","33","1",""
"null","null","clear_screen","canvas-keyboard-response","96","284370","0.0-11.0-1.42","106","2022-3-23","15:34:24","1","20","[""White""]","No","Female","1075205","","","","","","","","159","85","140","17","33","",""
"4607","5","rating","canvas-keyboard-response","97","288991","0.0-11.0-0.43","106","2022-3-23","15:34:24","1","20","[""White""]","No","Female","1075205","","","","","","","","199","30","140","25","25","1",""
"null","null","clear_screen","canvas-keyboard-response","98","289250","0.0-11.0-1.43","106","2022-3-23","15:34:24","1","20","[""White""]","No","Female","1075205","","","","","","","","199","30","140","25","25","",""
"1361","5","rating","canvas-keyboard-response","99","290622","0.0-11.0-0.44","106","2022-3-23","15:34:24","1","20","[""White""]","No","Female","1075205","","","","","","","","263","30","113","33","40","1",""
"null","null","clear_screen","canvas-keyboard-response","100","290883","0.0-11.0-1.44","106","2022-3-23","15:34:24","1","20","[""White""]","No","Female","1075205","","","","","","","","263","30","113","33","40","",""
"3129","4","rating","canvas-keyboard-response","101","294023","0.0-11.0-0.45","106","2022-3-23","15:34:24","1","20","[""White""]","No","Female","1075205","","","","","","","","98","140","85","10","25","1",""
"null","null","clear_screen","canvas-keyboard-response","102","294282","0.0-11.0-1.45","106","2022-3-23","15:34:24","1","20","[""White""]","No","Female","1075205","","","","","","","","98","140","85","10","25","",""
"4161","6","rating","canvas-keyboard-response","103","298455","0.0-11.0-0.46","106","2022-3-23","15:34:24","1","20","[""White""]","No","Female","1075205","","","","","","","","243","113","85","25","40","0",""
"null","null","clear_screen","canvas-keyboard-response","104","298716","0.0-11.0-1.46","106","2022-3-23","15:34:24","1","20","[""White""]","No","Female","1075205","","","","","","","","243","113","85","25","40","",""
"3720","8","rating","canvas-keyboard-response","105","302447","0.0-11.0-0.47","106","2022-3-23","15:34:24","1","20","[""White""]","No","Female","1075205","","","","","","","","115","30","30","17","25","0",""
"null","null","clear_screen","canvas-keyboard-response","106","302707","0.0-11.0-1.47","106","2022-3-23","15:34:24","1","20","[""White""]","No","Female","1075205","","","","","","","","115","30","30","17","25","",""
"3025","5","rating","canvas-keyboard-response","107","305743","0.0-11.0-0.48","106","2022-3-23","15:34:24","1","20","[""White""]","No","Female","1075205","","","","","","","","272","57","140","33","40","1",""
"null","null","clear_screen","canvas-keyboard-response","108","306003","0.0-11.0-1.48","106","2022-3-23","15:34:24","1","20","[""White""]","No","Female","1075205","","","","","","","","272","57","140","33","40","",""
"2614","7","rating","canvas-keyboard-response","109","308630","0.0-11.0-0.49","106","2022-3-23","15:34:24","1","20","[""White""]","No","Female","1075205","","","","","","","","10","30","30","10","25","0",""
"null","null","clear_screen","canvas-keyboard-response","110","308891","0.0-11.0-1.49","106","2022-3-23","15:34:24","1","20","[""White""]","No","Female","1075205","","","","","","","","10","30","30","10","25","",""
"2091","5","rating","canvas-keyboard-response","111","310998","0.0-11.0-0.50","106","2022-3-23","15:34:24","1","20","[""White""]","No","Female","1075205","","","","","","","","8","30","113","10","17","1",""
"null","null","clear_screen","canvas-keyboard-response","112","311257","0.0-11.0-1.50","106","2022-3-23","15:34:24","1","20","[""White""]","No","Female","1075205","","","","","","","","8","30","113","10","17","",""
"3471","7","rating","canvas-keyboard-response","113","314743","0.0-11.0-0.51","106","2022-3-23","15:34:24","1","20","[""White""]","No","Female","1075205","","","","","","","","120","30","30","17","33","0",""
"null","null","clear_screen","canvas-keyboard-response","114","315003","0.0-11.0-1.51","106","2022-3-23","15:34:24","1","20","[""White""]","No","Female","1075205","","","","","","","","120","30","30","17","33","",""
"1119","7","rating","canvas-keyboard-response","115","316135","0.0-11.0-0.52","106","2022-3-23","15:34:24","1","20","[""White""]","No","Female","1075205","","","","","","","","73","113","85","10","17","1",""
"null","null","clear_screen","canvas-keyboard-response","116","316398","0.0-11.0-1.52","106","2022-3-23","15:34:24","1","20","[""White""]","No","Female","1075205","","","","","","","","73","113","85","10","17","",""
"1426","4","rating","canvas-keyboard-response","117","317838","0.0-11.0-0.53","106","2022-3-23","15:34:24","1","20","[""White""]","No","Female","1075205","","","","","","","","294","30","140","40","40","1",""
"null","null","clear_screen","canvas-keyboard-response","118","318097","0.0-11.0-1.53","106","2022-3-23","15:34:24","1","20","[""White""]","No","Female","1075205","","","","","","","","294","30","140","40","40","",""
"2310","8","rating","canvas-keyboard-response","119","320423","0.0-11.0-0.54","106","2022-3-23","15:34:24","1","20","[""White""]","No","Female","1075205","","","","","","","","25","57","85","10","10","1",""
"null","null","clear_screen","canvas-keyboard-response","120","320681","0.0-11.0-1.54","106","2022-3-23","15:34:24","1","20","[""White""]","No","Female","1075205","","","","","","","","25","57","85","10","10","",""
"3319","7","rating","canvas-keyboard-response","121","324015","0.0-11.0-0.55","106","2022-3-23","15:34:24","1","20","[""White""]","No","Female","1075205","","","","","","","","240","113","140","25","33","0",""
"null","null","clear_screen","canvas-keyboard-response","122","324275","0.0-11.0-1.55","106","2022-3-23","15:34:24","1","20","[""White""]","No","Female","1075205","","","","","","","","240","113","140","25","33","",""
"2913","6","rating","canvas-keyboard-response","123","327198","0.0-11.0-0.56","106","2022-3-23","15:34:24","1","20","[""White""]","No","Female","1075205","","","","","","","","212","57","140","25","25","0",""
"null","null","clear_screen","canvas-keyboard-response","124","327459","0.0-11.0-1.56","106","2022-3-23","15:34:24","1","20","[""White""]","No","Female","1075205","","","","","","","","212","57","140","25","25","",""
"5608","6","rating","canvas-keyboard-response","125","333079","0.0-11.0-0.57","106","2022-3-23","15:34:24","1","20","[""White""]","No","Female","1075205","","","","","","","","15","30","30","10","33","1",""
"null","null","clear_screen","canvas-keyboard-response","126","333340","0.0-11.0-1.57","106","2022-3-23","15:34:24","1","20","[""White""]","No","Female","1075205","","","","","","","","15","30","30","10","33","",""
"2881","5","rating","canvas-keyboard-response","127","336231","0.0-11.0-0.58","106","2022-3-23","15:34:24","1","20","[""White""]","No","Female","1075205","","","","","","","","194","140","113","17","40","1",""
"null","null","clear_screen","canvas-keyboard-response","128","336490","0.0-11.0-1.58","106","2022-3-23","15:34:24","1","20","[""White""]","No","Female","1075205","","","","","","","","194","140","113","17","40","",""
"19663","5","rating","canvas-keyboard-response","129","356168","0.0-11.0-0.59","106","2022-3-23","15:34:24","1","20","[""White""]","No","Female","1075205","","","","","","","","166","113","30","17","25","0",""
"null","null","clear_screen","canvas-keyboard-response","130","356429","0.0-11.0-1.59","106","2022-3-23","15:34:24","1","20","[""White""]","No","Female","1075205","","","","","","","","166","113","30","17","25","",""
"1307","7","rating","canvas-keyboard-response","131","357751","0.0-11.0-0.60","106","2022-3-23","15:34:24","1","20","[""White""]","No","Female","1075205","","","","","","","","93","140","85","10","17","0",""
"null","null","clear_screen","canvas-keyboard-response","132","358013","0.0-11.0-1.60","106","2022-3-23","15:34:24","1","20","[""White""]","No","Female","1075205","","","","","","","","93","140","85","10","17","",""
"1342","5","rating","canvas-keyboard-response","133","359368","0.0-11.0-0.61","106","2022-3-23","15:34:24","1","20","[""White""]","No","Female","1075205","","","","","","","","107","140","57","10","40","0",""
"null","null","clear_screen","canvas-keyboard-response","134","359627","0.0-11.0-1.61","106","2022-3-23","15:34:24","1","20","[""White""]","No","Female","1075205","","","","","","","","107","140","57","10","40","",""
"1993","5","rating","canvas-keyboard-response","135","361631","0.0-11.0-0.62","106","2022-3-23","15:34:24","1","20","[""White""]","No","Female","1075205","","","","","","","","203","30","113","25","33","0",""
"null","null","clear_screen","canvas-keyboard-response","136","361890","0.0-11.0-1.62","106","2022-3-23","15:34:24","1","20","[""White""]","No","Female","1075205","","","","","","","","203","30","113","25","33","",""
"1658","6","rating","canvas-keyboard-response","137","363559","0.0-11.0-0.63","106","2022-3-23","15:34:24","1","20","[""White""]","No","Female","1075205","","","","","","","","122","30","85","17","33","0",""
"null","null","clear_screen","canvas-keyboard-response","138","363818","0.0-11.0-1.63","106","2022-3-23","15:34:24","1","20","[""White""]","No","Female","1075205","","","","","","","","122","30","85","17","33","",""
"1145","7","rating","canvas-keyboard-response","139","364975","0.0-11.0-0.64","106","2022-3-23","15:34:24","1","20","[""White""]","No","Female","1075205","","","","","","","","289","140","113","33","40","0",""
"null","null","clear_screen","canvas-keyboard-response","140","365235","0.0-11.0-1.64","106","2022-3-23","15:34:24","1","20","[""White""]","No","Female","1075205","","","","","","","","289","140","113","33","40","",""
"3225","6","rating","canvas-keyboard-response","141","368471","0.0-11.0-0.65","106","2022-3-23","15:34:24","1","20","[""White""]","No","Female","1075205","","","","","","","","83","113","85","10","33","0",""
"null","null","clear_screen","canvas-keyboard-response","142","368732","0.0-11.0-1.65","106","2022-3-23","15:34:24","1","20","[""White""]","No","Female","1075205","","","","","","","","83","113","85","10","33","",""
"2359","7","rating","canvas-keyboard-response","143","371103","0.0-11.0-0.66","106","2022-3-23","15:34:24","1","20","[""White""]","No","Female","1075205","","","","","","","","213","57","30","25","33","1",""
"null","null","clear_screen","canvas-keyboard-response","144","371362","0.0-11.0-1.66","106","2022-3-23","15:34:24","1","20","[""White""]","No","Female","1075205","","","","","","","","213","57","30","25","33","",""
"1230","5","rating","canvas-keyboard-response","145","372607","0.0-11.0-0.67","106","2022-3-23","15:34:24","1","20","[""White""]","No","Female","1075205","","","","","","","","132","57","140","17","17","0",""
"null","null","clear_screen","canvas-keyboard-response","146","372867","0.0-11.0-1.67","106","2022-3-23","15:34:24","1","20","[""White""]","No","Female","1075205","","","","","","","","132","57","140","17","17","",""
"1534","4","rating","canvas-keyboard-response","147","374415","0.0-11.0-0.68","106","2022-3-23","15:34:24","1","20","[""White""]","No","Female","1075205","","","","","","","","281","113","30","33","40","0",""
"null","null","clear_screen","canvas-keyboard-response","148","374676","0.0-11.0-1.68","106","2022-3-23","15:34:24","1","20","[""White""]","No","Female","1075205","","","","","","","","281","113","30","33","40","",""
"1687","6","rating","canvas-keyboard-response","149","376375","0.0-11.0-0.69","106","2022-3-23","15:34:24","1","20","[""White""]","No","Female","1075205","","","","","","","","103","140","85","10","33","0",""
"null","null","clear_screen","canvas-keyboard-response","150","376635","0.0-11.0-1.69","106","2022-3-23","15:34:24","1","20","[""White""]","No","Female","1075205","","","","","","","","103","140","85","10","33","",""
"2519","7","rating","canvas-keyboard-response","151","379166","0.0-11.0-0.70","106","2022-3-23","15:34:24","1","20","[""White""]","No","Female","1075205","","","","","","","","291","30","57","40","40","0",""
"null","null","clear_screen","canvas-keyboard-response","152","379426","0.0-11.0-1.70","106","2022-3-23","15:34:24","1","20","[""White""]","No","Female","1075205","","","","","","","","291","30","57","40","40","",""
"1526","7","rating","canvas-keyboard-response","153","380966","0.0-11.0-0.71","106","2022-3-23","15:34:24","1","20","[""White""]","No","Female","1075205","","","","","","","","85","113","140","10","33","1",""
"null","null","clear_screen","canvas-keyboard-response","154","381230","0.0-11.0-1.71","106","2022-3-23","15:34:24","1","20","[""White""]","No","Female","1075205","","","","","","","","85","113","140","10","33","",""
"2150","4","rating","canvas-keyboard-response","155","383391","0.0-11.0-0.72","106","2022-3-23","15:34:24","1","20","[""White""]","No","Female","1075205","","","","","","","","147","57","140","17","40","0",""
"null","null","clear_screen","canvas-keyboard-response","156","383651","0.0-11.0-1.72","106","2022-3-23","15:34:24","1","20","[""White""]","No","Female","1075205","","","","","","","","147","57","140","17","40","",""
"1721","8","rating","canvas-keyboard-response","157","385383","0.0-11.0-0.73","106","2022-3-23","15:34:24","1","20","[""White""]","No","Female","1075205","","","","","","","","100","140","140","10","25","0",""
"null","null","clear_screen","canvas-keyboard-response","158","385643","0.0-11.0-1.73","106","2022-3-23","15:34:24","1","20","[""White""]","No","Female","1075205","","","","","","","","100","140","140","10","25","",""
"2082","8","rating","canvas-keyboard-response","159","387735","0.0-11.0-0.74","106","2022-3-23","15:34:24","1","20","[""White""]","No","Female","1075205","","","","","","","","215","57","85","25","33","0",""
"null","null","clear_screen","canvas-keyboard-response","160","387998","0.0-11.0-1.74","106","2022-3-23","15:34:24","1","20","[""White""]","No","Female","1075205","","","","","","","","215","57","85","25","33","",""
"2621","6","rating","canvas-keyboard-response","161","390631","0.0-11.0-0.75","106","2022-3-23","15:34:24","1","20","[""White""]","No","Female","1075205","","","","","","","","150","85","30","17","25","0",""
"null","null","clear_screen","canvas-keyboard-response","162","390894","0.0-11.0-1.75","106","2022-3-23","15:34:24","1","20","[""White""]","No","Female","1075205","","","","","","","","150","85","30","17","25","",""
"1698","8","rating","canvas-keyboard-response","163","392606","0.0-11.0-0.76","106","2022-3-23","15:34:24","1","20","[""White""]","No","Female","1075205","","","","","","","","232","85","85","25","40","0",""
"null","null","clear_screen","canvas-keyboard-response","164","392868","0.0-11.0-1.76","106","2022-3-23","15:34:24","1","20","[""White""]","No","Female","1075205","","","","","","","","232","85","85","25","40","",""
"4219","3","rating","canvas-keyboard-response","165","397103","0.0-11.0-0.77","106","2022-3-23","15:34:24","1","20","[""White""]","No","Female","1075205","","","","","","","","38","57","30","10","33","0",""
"null","null","clear_screen","canvas-keyboard-response","166","397365","0.0-11.0-1.77","106","2022-3-23","15:34:24","1","20","[""White""]","No","Female","1075205","","","","","","","","38","57","30","10","33","",""
"2379","7","rating","canvas-keyboard-response","167","399759","0.0-11.0-0.78","106","2022-3-23","15:34:24","1","20","[""White""]","No","Female","1075205","","","","","","","","139","57","57","17","33","1",""
"null","null","clear_screen","canvas-keyboard-response","168","400022","0.0-11.0-1.78","106","2022-3-23","15:34:24","1","20","[""White""]","No","Female","1075205","","","","","","","","139","57","57","17","33","",""
"1746","4","rating","canvas-keyboard-response","169","401783","0.0-11.0-0.79","106","2022-3-23","15:34:24","1","20","[""White""]","No","Female","1075205","","","","","","","","258","30","113","33","33","0",""
"null","null","clear_screen","canvas-keyboard-response","170","402046","0.0-11.0-1.79","106","2022-3-23","15:34:24","1","20","[""White""]","No","Female","1075205","","","","","","","","258","30","113","33","33","",""
"6434","6","rating","canvas-keyboard-response","171","408494","0.0-11.0-0.80","106","2022-3-23","15:34:24","1","20","[""White""]","No","Female","1075205","","","","","","","","11","30","57","10","25","0",""
"null","null","clear_screen","canvas-keyboard-response","172","408755","0.0-11.0-1.80","106","2022-3-23","15:34:24","1","20","[""White""]","No","Female","1075205","","","","","","","","11","30","57","10","25","",""
"2270","2","rating","canvas-keyboard-response","173","411039","0.0-11.0-0.81","106","2022-3-23","15:34:24","1","20","[""White""]","No","Female","1075205","","","","","","","","191","140","30","17","40","0",""
"null","null","clear_screen","canvas-keyboard-response","174","411299","0.0-11.0-1.81","106","2022-3-23","15:34:24","1","20","[""White""]","No","Female","1075205","","","","","","","","191","140","30","17","40","",""
"3991","7","rating","canvas-keyboard-response","175","415303","0.0-11.0-0.82","106","2022-3-23","15:34:24","1","20","[""White""]","No","Female","1075205","","","","","","","","179","113","113","17","40","1",""
"null","null","clear_screen","canvas-keyboard-response","176","415564","0.0-11.0-1.82","106","2022-3-23","15:34:24","1","20","[""White""]","No","Female","1075205","","","","","","","","179","113","113","17","40","",""
"2782","6","rating","canvas-keyboard-response","177","418359","0.0-11.0-0.83","106","2022-3-23","15:34:24","1","20","[""White""]","No","Female","1075205","","","","","","","","188","140","85","17","33","1",""
"null","null","clear_screen","canvas-keyboard-response","178","418619","0.0-11.0-1.83","106","2022-3-23","15:34:24","1","20","[""White""]","No","Female","1075205","","","","","","","","188","140","85","17","33","",""
"474","6","rating","canvas-keyboard-response","179","419103","0.0-11.0-0.84","106","2022-3-23","15:34:24","1","20","[""White""]","No","Female","1075205","","","","","","","","290","140","140","33","40","0",""
"null","null","clear_screen","canvas-keyboard-response","180","419362","0.0-11.0-1.84","106","2022-3-23","15:34:24","1","20","[""White""]","No","Female","1075205","","","","","","","","290","140","140","33","40","",""
"5636","9","rating","canvas-keyboard-response","181","425008","0.0-11.0-0.85","106","2022-3-23","15:34:24","1","20","[""White""]","No","Female","1075205","","","","","","","","5","30","30","10","17","0",""
"null","null","clear_screen","canvas-keyboard-response","182","425269","0.0-11.0-1.85","106","2022-3-23","15:34:24","1","20","[""White""]","No","Female","1075205","","","","","","","","5","30","30","10","17","",""
"7349","7","rating","canvas-keyboard-response","183","432631","0.0-11.0-0.86","106","2022-3-23","15:34:24","1","20","[""White""]","No","Female","1075205","","","","","","","","279","85","140","33","40","1",""
"null","null","clear_screen","canvas-keyboard-response","184","432892","0.0-11.0-1.86","106","2022-3-23","15:34:24","1","20","[""White""]","No","Female","1075205","","","","","","","","279","85","140","33","40","",""
"2134","4","rating","canvas-keyboard-response","185","435039","0.0-11.0-0.87","106","2022-3-23","15:34:24","1","20","[""White""]","No","Female","1075205","","","","","","","","247","140","57","25","33","1",""
"null","null","clear_screen","canvas-keyboard-response","186","435302","0.0-11.0-1.87","106","2022-3-23","15:34:24","1","20","[""White""]","No","Female","1075205","","","","","","","","247","140","57","25","33","",""
"1907","7","rating","canvas-keyboard-response","187","437223","0.0-11.0-0.88","106","2022-3-23","15:34:24","1","20","[""White""]","No","Female","1075205","","","","","","","","254","140","113","25","40","1",""
"null","null","clear_screen","canvas-keyboard-response","188","437484","0.0-11.0-1.88","106","2022-3-23","15:34:24","1","20","[""White""]","No","Female","1075205","","","","","","","","254","140","113","25","40","",""
"2880","5","rating","canvas-keyboard-response","189","440376","0.0-11.0-0.89","106","2022-3-23","15:34:24","1","20","[""White""]","No","Female","1075205","","","","","","","","164","85","140","17","40","0",""
"null","null","clear_screen","canvas-keyboard-response","190","440635","0.0-11.0-1.89","106","2022-3-23","15:34:24","1","20","[""White""]","No","Female","1075205","","","","","","","","164","85","140","17","40","",""
"2193","7","rating","canvas-keyboard-response","191","442840","0.0-11.0-0.90","106","2022-3-23","15:34:24","1","20","[""White""]","No","Female","1075205","","","","","","","","79","113","113","10","25","1",""
"null","null","clear_screen","canvas-keyboard-response","192","443099","0.0-11.0-1.90","106","2022-3-23","15:34:24","1","20","[""White""]","No","Female","1075205","","","","","","","","79","113","113","10","25","",""
"3697","2","rating","canvas-keyboard-response","193","446807","0.0-11.0-0.91","106","2022-3-23","15:34:24","1","20","[""White""]","No","Female","1075205","","","","","","","","91","140","30","10","17","0",""
"null","null","clear_screen","canvas-keyboard-response","194","447066","0.0-11.0-1.91","106","2022-3-23","15:34:24","1","20","[""White""]","No","Female","1075205","","","","","","","","91","140","30","10","17","",""
"1853","6","rating","canvas-keyboard-response","195","448934","0.0-11.0-0.92","106","2022-3-23","15:34:24","1","20","[""White""]","No","Female","1075205","","","","","","","","216","57","113","25","33","1",""
"null","null","clear_screen","canvas-keyboard-response","196","449196","0.0-11.0-1.92","106","2022-3-23","15:34:24","1","20","[""White""]","No","Female","1075205","","","","","","","","216","57","113","25","33","",""
"3016","7","rating","canvas-keyboard-response","197","452223","0.0-11.0-0.93","106","2022-3-23","15:34:24","1","20","[""White""]","No","Female","1075205","","","","","","","","57","85","85","10","25","1",""
"null","null","clear_screen","canvas-keyboard-response","198","452486","0.0-11.0-1.93","106","2022-3-23","15:34:24","1","20","[""White""]","No","Female","1075205","","","","","","","","57","85","85","10","25","",""
"2110","5","rating","canvas-keyboard-response","199","454606","0.0-11.0-0.94","106","2022-3-23","15:34:24","1","20","[""White""]","No","Female","1075205","","","","","","","","230","85","30","25","40","1",""
"null","null","clear_screen","canvas-keyboard-response","200","454870","0.0-11.0-1.94","106","2022-3-23","15:34:24","1","20","[""White""]","No","Female","1075205","","","","","","","","230","85","30","25","40","",""
"22132","5","rating","canvas-keyboard-response","201","477015","0.0-11.0-0.95","106","2022-3-23","15:34:24","1","20","[""White""]","No","Female","1075205","","","","","","","","224","85","140","25","25","0",""
"null","null","clear_screen","canvas-keyboard-response","202","477279","0.0-11.0-1.95","106","2022-3-23","15:34:24","1","20","[""White""]","No","Female","1075205","","","","","","","","224","85","140","25","25","",""
"1443","7","rating","canvas-keyboard-response","203","478734","0.0-11.0-0.96","106","2022-3-23","15:34:24","1","20","[""White""]","No","Female","1075205","","","","","","","","283","113","85","33","40","1",""
"null","null","clear_screen","canvas-keyboard-response","204","478998","0.0-11.0-1.96","106","2022-3-23","15:34:24","1","20","[""White""]","No","Female","1075205","","","","","","","","283","113","85","33","40","",""
"1357","5","rating","canvas-keyboard-response","205","480367","0.0-11.0-0.97","106","2022-3-23","15:34:24","1","20","[""White""]","No","Female","1075205","","","","","","","","296","57","113","40","40","0",""
"null","null","clear_screen","canvas-keyboard-response","206","480629","0.0-11.0-1.97","106","2022-3-23","15:34:24","1","20","[""White""]","No","Female","1075205","","","","","","","","296","57","113","40","40","",""
"3240","3","rating","canvas-keyboard-response","207","483879","0.0-11.0-0.98","106","2022-3-23","15:34:24","1","20","[""White""]","No","Female","1075205","","","","","","","","16","30","57","10","33","1",""
"null","null","clear_screen","canvas-keyboard-response","208","484142","0.0-11.0-1.98","106","2022-3-23","15:34:24","1","20","[""White""]","No","Female","1075205","","","","","","","","16","30","57","10","33","",""
"3178","6","rating","canvas-keyboard-response","209","487335","0.0-11.0-0.99","106","2022-3-23","15:34:24","1","20","[""White""]","No","Female","1075205","","","","","","","","109","140","113","10","40","0",""
"null","null","clear_screen","canvas-keyboard-response","210","487594","0.0-11.0-1.99","106","2022-3-23","15:34:24","1","20","[""White""]","No","Female","1075205","","","","","","","","109","140","113","10","40","",""
"1248","7","rating","canvas-keyboard-response","211","488855","0.0-11.0-0.100","106","2022-3-23","15:34:24","1","20","[""White""]","No","Female","1075205","","","","","","","","105","140","140","10","33","0",""
"null","null","clear_screen","canvas-keyboard-response","212","489114","0.0-11.0-1.100","106","2022-3-23","15:34:24","1","20","[""White""]","No","Female","1075205","","","","","","","","105","140","140","10","33","",""
"1222","8","rating","canvas-keyboard-response","213","490350","0.0-11.0-0.101","106","2022-3-23","15:34:24","1","20","[""White""]","No","Female","1075205","","","","","","","","270","57","85","33","40","1",""
"null","null","clear_screen","canvas-keyboard-response","214","490608","0.0-11.0-1.101","106","2022-3-23","15:34:24","1","20","[""White""]","No","Female","1075205","","","","","","","","270","57","85","33","40","",""
"1329","8","rating","canvas-keyboard-response","215","491951","0.0-11.0-0.102","106","2022-3-23","15:34:24","1","20","[""White""]","No","Female","1075205","","","","","","","","255","140","140","25","40","1",""
"null","null","clear_screen","canvas-keyboard-response","216","492211","0.0-11.0-1.102","106","2022-3-23","15:34:24","1","20","[""White""]","No","Female","1075205","","","","","","","","255","140","140","25","40","",""
"2463","6","rating","canvas-keyboard-response","217","494687","0.0-11.0-0.103","106","2022-3-23","15:34:24","1","20","[""White""]","No","Female","1075205","","","","","","","","39","57","57","10","33","1",""
"null","null","clear_screen","canvas-keyboard-response","218","494950","0.0-11.0-1.103","106","2022-3-23","15:34:24","1","20","[""White""]","No","Female","1075205","","","","","","","","39","57","57","10","33","",""
"3180","4","rating","canvas-keyboard-response","219","498143","0.0-11.0-0.104","106","2022-3-23","15:34:24","1","20","[""White""]","No","Female","1075205","","","","","","","","76","113","30","10","25","1",""
"null","null","clear_screen","canvas-keyboard-response","220","498409","0.0-11.0-1.104","106","2022-3-23","15:34:24","1","20","[""White""]","No","Female","1075205","","","","","","","","76","113","30","10","25","",""
"3859","8","rating","canvas-keyboard-response","221","502280","0.0-11.0-0.105","106","2022-3-23","15:34:24","1","20","[""White""]","No","Female","1075205","","","","","","","","130","57","85","17","17","0",""
"null","null","clear_screen","canvas-keyboard-response","222","502540","0.0-11.0-1.105","106","2022-3-23","15:34:24","1","20","[""White""]","No","Female","1075205","","","","","","","","130","57","85","17","17","",""
"1452","5","rating","canvas-keyboard-response","223","504007","0.0-11.0-0.106","106","2022-3-23","15:34:24","1","20","[""White""]","No","Female","1075205","","","","","","","","198","30","113","25","25","0",""
"null","null","clear_screen","canvas-keyboard-response","224","504270","0.0-11.0-1.106","106","2022-3-23","15:34:24","1","20","[""White""]","No","Female","1075205","","","","","","","","198","30","113","25","25","",""
"2138","4","rating","canvas-keyboard-response","225","506423","0.0-11.0-0.107","106","2022-3-23","15:34:24","1","20","[""White""]","No","Female","1075205","","","","","","","","222","57","140","25","40","0",""
"null","null","clear_screen","canvas-keyboard-response","226","506684","0.0-11.0-1.107","106","2022-3-23","15:34:24","1","20","[""White""]","No","Female","1075205","","","","","","","","222","57","140","25","40","",""
"2301","7","rating","canvas-keyboard-response","227","508999","0.0-11.0-0.108","106","2022-3-23","15:34:24","1","20","[""White""]","No","Female","1075205","","","","","","","","59","85","140","10","25","1",""
"null","null","clear_screen","canvas-keyboard-response","228","509260","0.0-11.0-1.108","106","2022-3-23","15:34:24","1","20","[""White""]","No","Female","1075205","","","","","","","","59","85","140","10","25","",""
"2727","7","rating","canvas-keyboard-response","229","512000","0.0-11.0-0.109","106","2022-3-23","15:34:24","1","20","[""White""]","No","Female","1075205","","","","","","","","235","113","140","25","25","0",""
"null","null","clear_screen","canvas-keyboard-response","230","512260","0.0-11.0-1.109","106","2022-3-23","15:34:24","1","20","[""White""]","No","Female","1075205","","","","","","","","235","113","140","25","25","",""
"1659","5","rating","canvas-keyboard-response","231","513935","0.0-11.0-0.110","106","2022-3-23","15:34:24","1","20","[""White""]","No","Female","1075205","","","","","","","","297","57","140","40","40","1",""
"null","null","clear_screen","canvas-keyboard-response","232","514194","0.0-11.0-1.110","106","2022-3-23","15:34:24","1","20","[""White""]","No","Female","1075205","","","","","","","","297","57","140","40","40","",""
"6265","1","rating","canvas-keyboard-response","233","520471","0.0-11.0-0.111","106","2022-3-23","15:34:24","1","20","[""White""]","No","Female","1075205","","","","","","","","24","30","140","10","40","1",""
"null","null","clear_screen","canvas-keyboard-response","234","520731","0.0-11.0-1.111","106","2022-3-23","15:34:24","1","20","[""White""]","No","Female","1075205","","","","","","","","24","30","140","10","40","",""
"4866","6","rating","canvas-keyboard-response","235","525608","0.0-11.0-0.112","106","2022-3-23","15:34:24","1","20","[""White""]","No","Female","1075205","","","","","","","","231","85","57","25","40","1",""
"null","null","clear_screen","canvas-keyboard-response","236","525868","0.0-11.0-1.112","106","2022-3-23","15:34:24","1","20","[""White""]","No","Female","1075205","","","","","","","","231","85","57","25","40","",""
"2457","9","rating","canvas-keyboard-response","237","528335","0.0-11.0-0.113","106","2022-3-23","15:34:24","1","20","[""White""]","No","Female","1075205","","","","","","","","152","85","85","17","25","0",""
"null","null","clear_screen","canvas-keyboard-response","238","528594","0.0-11.0-1.113","106","2022-3-23","15:34:24","1","20","[""White""]","No","Female","1075205","","","","","","","","152","85","85","17","25","",""
"3208","7","rating","canvas-keyboard-response","239","531816","0.0-11.0-0.114","106","2022-3-23","15:34:24","1","20","[""White""]","No","Female","1075205","","","","","","","","172","113","57","17","33","1",""
"null","null","clear_screen","canvas-keyboard-response","240","532076","0.0-11.0-1.114","106","2022-3-23","15:34:24","1","20","[""White""]","No","Female","1075205","","","","","","","","172","113","57","17","33","",""
"2047","4","rating","canvas-keyboard-response","241","534135","0.0-11.0-0.115","106","2022-3-23","15:34:24","1","20","[""White""]","No","Female","1075205","","","","","","","","187","140","57","17","33","0",""
"null","null","clear_screen","canvas-keyboard-response","242","534398","0.0-11.0-1.115","106","2022-3-23","15:34:24","1","20","[""White""]","No","Female","1075205","","","","","","","","187","140","57","17","33","",""
"2043","5","rating","canvas-keyboard-response","243","536455","0.0-11.0-0.116","106","2022-3-23","15:34:24","1","20","[""White""]","No","Female","1075205","","","","","","","","248","140","85","25","33","0",""
"null","null","clear_screen","canvas-keyboard-response","244","536717","0.0-11.0-1.116","106","2022-3-23","15:34:24","1","20","[""White""]","No","Female","1075205","","","","","","","","248","140","85","25","33","",""
"2530","8","rating","canvas-keyboard-response","245","539262","0.0-11.0-0.117","106","2022-3-23","15:34:24","1","20","[""White""]","No","Female","1075205","","","","","","","","298","85","113","40","40","1",""
"null","null","clear_screen","canvas-keyboard-response","246","539522","0.0-11.0-1.117","106","2022-3-23","15:34:24","1","20","[""White""]","No","Female","1075205","","","","","","","","298","85","113","40","40","",""
"2337","6","rating","canvas-keyboard-response","247","541872","0.0-11.0-0.118","106","2022-3-23","15:34:24","1","20","[""White""]","No","Female","1075205","","","","","","","","6","30","57","10","17","1",""
"null","null","clear_screen","canvas-keyboard-response","248","542131","0.0-11.0-1.118","106","2022-3-23","15:34:24","1","20","[""White""]","No","Female","1075205","","","","","","","","6","30","57","10","17","",""
"1879","3","rating","canvas-keyboard-response","249","544023","0.0-11.0-0.119","106","2022-3-23","15:34:24","1","20","[""White""]","No","Female","1075205","","","","","","","","22","30","85","10","40","0",""
"null","null","clear_screen","canvas-keyboard-response","250","544283","0.0-11.0-1.119","106","2022-3-23","15:34:24","1","20","[""White""]","No","Female","1075205","","","","","","","","22","30","85","10","40","",""
"3603","6","rating","canvas-keyboard-response","251","547894","0.0-11.0-0.120","106","2022-3-23","15:34:24","1","20","[""White""]","No","Female","1075205","","","","","","","","183","140","85","17","25","1",""
"null","null","clear_screen","canvas-keyboard-response","252","548154","0.0-11.0-1.120","106","2022-3-23","15:34:24","1","20","[""White""]","No","Female","1075205","","","","","","","","183","140","85","17","25","",""
"2450","1","rating","canvas-keyboard-response","253","550614","0.0-11.0-0.121","106","2022-3-23","15:34:24","1","20","[""White""]","No","Female","1075205","","","","","","","","251","140","30","25","40","0",""
"null","null","clear_screen","canvas-keyboard-response","254","550873","0.0-11.0-1.121","106","2022-3-23","15:34:24","1","20","[""White""]","No","Female","1075205","","","","","","","","251","140","30","25","40","",""
"3319","7","rating","canvas-keyboard-response","255","554207","0.0-11.0-0.122","106","2022-3-23","15:34:24","1","20","[""White""]","No","Female","1075205","","","","","","","","112","30","85","17","17","0",""
"null","null","clear_screen","canvas-keyboard-response","256","554467","0.0-11.0-1.122","106","2022-3-23","15:34:24","1","20","[""White""]","No","Female","1075205","","","","","","","","112","30","85","17","17","",""
"2145","4","rating","canvas-keyboard-response","257","556623","0.0-11.0-0.123","106","2022-3-23","15:34:24","1","20","[""White""]","No","Female","1075205","","","","","","","","13","30","113","10","25","1",""
"null","null","clear_screen","canvas-keyboard-response","258","556886","0.0-11.0-1.123","106","2022-3-23","15:34:24","1","20","[""White""]","No","Female","1075205","","","","","","","","13","30","113","10","25","",""
"9411","3","rating","canvas-keyboard-response","259","566313","0.0-11.0-0.124","106","2022-3-23","15:34:24","1","20","[""White""]","No","Female","1075205","","","","","","","","129","30","140","17","40","0",""
"null","null","clear_screen","canvas-keyboard-response","260","566573","0.0-11.0-1.124","106","2022-3-23","15:34:24","1","20","[""White""]","No","Female","1075205","","","","","","","","129","30","140","17","40","",""
"3398","8","rating","canvas-keyboard-response","261","569984","0.0-11.0-0.125","106","2022-3-23","15:34:24","1","20","[""White""]","No","Female","1075205","","","","","","","","300","113","140","40","40","1",""
"null","null","clear_screen","canvas-keyboard-response","262","570244","0.0-11.0-1.125","106","2022-3-23","15:34:24","1","20","[""White""]","No","Female","1075205","","","","","","","","300","113","140","40","40","",""
"15718","5","rating","canvas-keyboard-response","263","585975","0.0-11.0-0.126","106","2022-3-23","15:34:24","1","20","[""White""]","No","Female","1075205","","","","","","","","177","113","57","17","40","1",""
"null","null","clear_screen","canvas-keyboard-response","264","586235","0.0-11.0-1.126","106","2022-3-23","15:34:24","1","20","[""White""]","No","Female","1075205","","","","","","","","177","113","57","17","40","",""
"1358","7","rating","canvas-keyboard-response","265","587607","0.0-11.0-0.127","106","2022-3-23","15:34:24","1","20","[""White""]","No","Female","1075205","","","","","","","","175","113","140","17","33","1",""
"null","null","clear_screen","canvas-keyboard-response","266","587867","0.0-11.0-1.127","106","2022-3-23","15:34:24","1","20","[""White""]","No","Female","1075205","","","","","","","","175","113","140","17","33","",""
"2080","3","rating","canvas-keyboard-response","267","589960","0.0-11.0-0.128","106","2022-3-23","15:34:24","1","20","[""White""]","No","Female","1075205","","","","","","","","252","140","57","25","40","1",""
"null","null","clear_screen","canvas-keyboard-response","268","590219","0.0-11.0-1.128","106","2022-3-23","15:34:24","1","20","[""White""]","No","Female","1075205","","","","","","","","252","140","57","25","40","",""
"1038","3","rating","canvas-keyboard-response","269","591272","0.0-11.0-0.129","106","2022-3-23","15:34:24","1","20","[""White""]","No","Female","1075205","","","","","","","","47","57","140","10","40","0",""
"null","null","clear_screen","canvas-keyboard-response","270","591530","0.0-11.0-1.129","106","2022-3-23","15:34:24","1","20","[""White""]","No","Female","1075205","","","","","","","","47","57","140","10","40","",""
"1967","7","rating","canvas-keyboard-response","271","593511","0.0-11.0-0.130","106","2022-3-23","15:34:24","1","20","[""White""]","No","Female","1075205","","","","","","","","223","85","113","25","25","1",""
"null","null","clear_screen","canvas-keyboard-response","272","593772","0.0-11.0-1.130","106","2022-3-23","15:34:24","1","20","[""White""]","No","Female","1075205","","","","","","","","223","85","113","25","25","",""
"4208","4","rating","canvas-keyboard-response","273","597991","0.0-11.0-0.131","106","2022-3-23","15:34:24","1","20","[""White""]","No","Female","1075205","","","","","","","","27","57","140","10","10","0",""
"null","null","clear_screen","canvas-keyboard-response","274","598252","0.0-11.0-1.131","106","2022-3-23","15:34:24","1","20","[""White""]","No","Female","1075205","","","","","","","","27","57","140","10","10","",""
"1209","4","rating","canvas-keyboard-response","275","599472","0.0-11.0-0.132","106","2022-3-23","15:34:24","1","20","[""White""]","No","Female","1075205","","","","","","","","142","57","140","17","33","0",""
"null","null","clear_screen","canvas-keyboard-response","276","599735","0.0-11.0-1.132","106","2022-3-23","15:34:24","1","20","[""White""]","No","Female","1075205","","","","","","","","142","57","140","17","33","",""
"2778","3","rating","canvas-keyboard-response","277","602527","0.0-11.0-0.133","106","2022-3-23","15:34:24","1","20","[""White""]","No","Female","1075205","","","","","","","","65","85","30","10","40","1",""
"null","null","clear_screen","canvas-keyboard-response","278","602791","0.0-11.0-1.133","106","2022-3-23","15:34:24","1","20","[""White""]","No","Female","1075205","","","","","","","","65","85","30","10","40","",""
"1710","4","rating","canvas-keyboard-response","279","604512","0.0-11.0-0.134","106","2022-3-23","15:34:24","1","20","[""White""]","No","Female","1075205","","","","","","","","87","113","57","10","40","0",""
"null","null","clear_screen","canvas-keyboard-response","280","604774","0.0-11.0-1.134","106","2022-3-23","15:34:24","1","20","[""White""]","No","Female","1075205","","","","","","","","87","113","57","10","40","",""
"2389","8","rating","canvas-keyboard-response","281","607175","0.0-11.0-0.135","106","2022-3-23","15:34:24","1","20","[""White""]","No","Female","1075205","","","","","","","","265","57","85","33","33","0",""
"null","null","clear_screen","canvas-keyboard-response","282","607437","0.0-11.0-1.135","106","2022-3-23","15:34:24","1","20","[""White""]","No","Female","1075205","","","","","","","","265","57","85","33","33","",""
"4363","3","rating","canvas-keyboard-response","283","611815","0.0-11.0-0.136","106","2022-3-23","15:34:24","1","20","[""White""]","No","Female","1075205","","","","","","","","55","85","30","10","25","1",""
"null","null","clear_screen","canvas-keyboard-response","284","612078","0.0-11.0-1.136","106","2022-3-23","15:34:24","1","20","[""White""]","No","Female","1075205","","","","","","","","55","85","30","10","25","",""
"2099","7","rating","canvas-keyboard-response","285","614191","0.0-11.0-0.137","106","2022-3-23","15:34:24","1","20","[""White""]","No","Female","1075205","","","","","","","","267","57","140","33","33","1",""
"null","null","clear_screen","canvas-keyboard-response","286","614451","0.0-11.0-1.137","106","2022-3-23","15:34:24","1","20","[""White""]","No","Female","1075205","","","","","","","","267","57","140","33","33","",""
"1664","6","rating","canvas-keyboard-response","287","616127","0.0-11.0-0.138","106","2022-3-23","15:34:24","1","20","[""White""]","No","Female","1075205","","","","","","","","218","57","30","25","40","0",""
"null","null","clear_screen","canvas-keyboard-response","288","616388","0.0-11.0-1.138","106","2022-3-23","15:34:24","1","20","[""White""]","No","Female","1075205","","","","","","","","218","57","30","25","40","",""
"5079","7","rating","canvas-keyboard-response","289","621479","0.0-11.0-0.139","106","2022-3-23","15:34:24","1","20","[""White""]","No","Female","1075205","","","","","","","","245","113","140","25","40","1",""
"null","null","clear_screen","canvas-keyboard-response","290","621739","0.0-11.0-1.139","106","2022-3-23","15:34:24","1","20","[""White""]","No","Female","1075205","","","","","","","","245","113","140","25","40","",""
"1445","9","rating","canvas-keyboard-response","291","623199","0.0-11.0-0.140","106","2022-3-23","15:34:24","1","20","[""White""]","No","Female","1075205","","","","","","","","269","57","57","33","40","0",""
"null","null","clear_screen","canvas-keyboard-response","292","623458","0.0-11.0-1.140","106","2022-3-23","15:34:24","1","20","[""White""]","No","Female","1075205","","","","","","","","269","57","57","33","40","",""
"2875","4","rating","canvas-keyboard-response","293","626343","0.0-11.0-0.141","106","2022-3-23","15:34:24","1","20","[""White""]","No","Female","1075205","","","","","","","","124","30","140","17","33","1",""
"null","null","clear_screen","canvas-keyboard-response","294","626602","0.0-11.0-1.141","106","2022-3-23","15:34:24","1","20","[""White""]","No","Female","1075205","","","","","","","","124","30","140","17","33","",""
"2935","8","rating","canvas-keyboard-response","295","629552","0.0-11.0-0.142","106","2022-3-23","15:34:24","1","20","[""White""]","No","Female","1075205","","","","","","","","153","85","113","17","25","1",""
"null","null","clear_screen","canvas-keyboard-response","296","629810","0.0-11.0-1.142","106","2022-3-23","15:34:24","1","20","[""White""]","No","Female","1075205","","","","","","","","153","85","113","17","25","",""
"1601","7","rating","canvas-keyboard-response","297","631423","0.0-11.0-0.143","106","2022-3-23","15:34:24","1","20","[""White""]","No","Female","1075205","","","","","","","","274","85","140","33","33","1",""
"null","null","clear_screen","canvas-keyboard-response","298","631683","0.0-11.0-1.143","106","2022-3-23","15:34:24","1","20","[""White""]","No","Female","1075205","","","","","","","","274","85","140","33","33","",""
"2303","8","rating","canvas-keyboard-response","299","633998","0.0-11.0-0.144","106","2022-3-23","15:34:24","1","20","[""White""]","No","Female","1075205","","","","","","","","201","30","57","25","33","0",""
"null","null","clear_screen","canvas-keyboard-response","300","634259","0.0-11.0-1.144","106","2022-3-23","15:34:24","1","20","[""White""]","No","Female","1075205","","","","","","","","201","30","57","25","33","",""
"1914","3","rating","canvas-keyboard-response","301","636182","0.0-11.0-0.145","106","2022-3-23","15:34:24","1","20","[""White""]","No","Female","1075205","","","","","","","","259","30","140","33","33","1",""
"null","null","clear_screen","canvas-keyboard-response","302","636447","0.0-11.0-1.145","106","2022-3-23","15:34:24","1","20","[""White""]","No","Female","1075205","","","","","","","","259","30","140","33","33","",""
"1925","5","rating","canvas-keyboard-response","303","638382","0.0-11.0-0.146","106","2022-3-23","15:34:24","1","20","[""White""]","No","Female","1075205","","","","","","","","275","85","30","33","40","0",""
"null","null","clear_screen","canvas-keyboard-response","304","638641","0.0-11.0-1.146","106","2022-3-23","15:34:24","1","20","[""White""]","No","Female","1075205","","","","","","","","275","85","30","33","40","",""
"842","5","rating","canvas-keyboard-response","305","639495","0.0-11.0-0.147","106","2022-3-23","15:34:24","1","20","[""White""]","No","Female","1075205","","","","","","","","292","30","85","40","40","1",""
"null","null","clear_screen","canvas-keyboard-response","306","639755","0.0-11.0-1.147","106","2022-3-23","15:34:24","1","20","[""White""]","No","Female","1075205","","","","","","","","292","30","85","40","40","",""
"4479","5","rating","canvas-keyboard-response","307","644247","0.0-11.0-0.148","106","2022-3-23","15:34:24","1","20","[""White""]","No","Female","1075205","","","","","","","","217","57","140","25","33","0",""
"null","null","clear_screen","canvas-keyboard-response","308","644506","0.0-11.0-1.148","106","2022-3-23","15:34:24","1","20","[""White""]","No","Female","1075205","","","","","","","","217","57","140","25","33","",""
"1925","5","rating","canvas-keyboard-response","309","646446","0.0-11.0-0.149","106","2022-3-23","15:34:24","1","20","[""White""]","No","Female","1075205","","","","","","","","2","30","85","10","10","0",""
"null","null","clear_screen","canvas-keyboard-response","310","646704","0.0-11.0-1.149","106","2022-3-23","15:34:24","1","20","[""White""]","No","Female","1075205","","","","","","","","2","30","85","10","10","",""
"3904","4","rating","canvas-keyboard-response","311","650623","0.0-11.0-0.150","106","2022-3-23","15:34:24","1","20","[""White""]","No","Female","1075205","","","","","","","","204","30","140","25","33","1",""
"null","null","clear_screen","canvas-keyboard-response","312","650885","0.0-11.0-1.150","106","2022-3-23","15:34:24","1","20","[""White""]","No","Female","1075205","","","","","","","","204","30","140","25","33","",""
"2087","5","rating","canvas-keyboard-response","313","652983","0.0-11.0-0.151","106","2022-3-23","15:34:24","1","20","[""White""]","No","Female","1075205","","","","","","","","63","85","113","10","33","1",""
"null","null","clear_screen","canvas-keyboard-response","314","653247","0.0-11.0-1.151","106","2022-3-23","15:34:24","1","20","[""White""]","No","Female","1075205","","","","","","","","63","85","113","10","33","",""
"917","5","rating","canvas-keyboard-response","315","654176","0.0-11.0-0.152","106","2022-3-23","15:34:24","1","20","[""White""]","No","Female","1075205","","","","","","","","158","85","113","17","33","1",""
"null","null","clear_screen","canvas-keyboard-response","316","654437","0.0-11.0-1.152","106","2022-3-23","15:34:24","1","20","[""White""]","No","Female","1075205","","","","","","","","158","85","113","17","33","",""
"2374","5","rating","canvas-keyboard-response","317","656824","0.0-11.0-0.153","106","2022-3-23","15:34:24","1","20","[""White""]","No","Female","1075205","","","","","","","","140","57","85","17","33","0",""
"null","null","clear_screen","canvas-keyboard-response","318","657086","0.0-11.0-1.153","106","2022-3-23","15:34:24","1","20","[""White""]","No","Female","1075205","","","","","","","","140","57","85","17","33","",""
"1498","5","rating","canvas-keyboard-response","319","658600","0.0-11.0-0.154","106","2022-3-23","15:34:24","1","20","[""White""]","No","Female","1075205","","","","","","","","146","57","113","17","40","0",""
"null","null","clear_screen","canvas-keyboard-response","320","658863","0.0-11.0-1.154","106","2022-3-23","15:34:24","1","20","[""White""]","No","Female","1075205","","","","","","","","146","57","113","17","40","",""
"2899","9","rating","canvas-keyboard-response","321","661776","0.0-11.0-0.155","106","2022-3-23","15:34:24","1","20","[""White""]","No","Female","1075205","","","","","","","","284","113","113","33","40","0",""
"null","null","clear_screen","canvas-keyboard-response","322","662038","0.0-11.0-1.155","106","2022-3-23","15:34:24","1","20","[""White""]","No","Female","1075205","","","","","","","","284","113","113","33","40","",""
"3222","7","rating","canvas-keyboard-response","323","665271","0.0-11.0-0.156","106","2022-3-23","15:34:24","1","20","[""White""]","No","Female","1075205","","","","","","","","78","113","85","10","25","0",""
"null","null","clear_screen","canvas-keyboard-response","324","665529","0.0-11.0-1.156","106","2022-3-23","15:34:24","1","20","[""White""]","No","Female","1075205","","","","","","","","78","113","85","10","25","",""
"2294","2","rating","canvas-keyboard-response","325","667840","0.0-11.0-0.157","106","2022-3-23","15:34:24","1","20","[""White""]","No","Female","1075205","","","","","","","","86","113","30","10","40","1",""
"null","null","clear_screen","canvas-keyboard-response","326","668101","0.0-11.0-1.157","106","2022-3-23","15:34:24","1","20","[""White""]","No","Female","1075205","","","","","","","","86","113","30","10","40","",""
"4694","6","rating","canvas-keyboard-response","327","672807","0.0-11.0-0.158","106","2022-3-23","15:34:24","1","20","[""White""]","No","Female","1075205","","","","","","","","242","113","57","25","40","1",""
"null","null","clear_screen","canvas-keyboard-response","328","673066","0.0-11.0-1.158","106","2022-3-23","15:34:24","1","20","[""White""]","No","Female","1075205","","","","","","","","242","113","57","25","40","",""
"1823","3","rating","canvas-keyboard-response","329","674903","0.0-11.0-0.159","106","2022-3-23","15:34:24","1","20","[""White""]","No","Female","1075205","","","","","","","","71","113","30","10","17","1",""
"null","null","clear_screen","canvas-keyboard-response","330","675163","0.0-11.0-1.159","106","2022-3-23","15:34:24","1","20","[""White""]","No","Female","1075205","","","","","","","","71","113","30","10","17","",""
"1554","5","rating","canvas-keyboard-response","331","676727","0.0-11.0-0.160","106","2022-3-23","15:34:24","1","20","[""White""]","No","Female","1075205","","","","","","","","197","30","85","25","25","1",""
"null","null","clear_screen","canvas-keyboard-response","332","676988","0.0-11.0-1.160","106","2022-3-23","15:34:24","1","20","[""White""]","No","Female","1075205","","","","","","","","197","30","85","25","25","",""
"2317","7","rating","canvas-keyboard-response","333","679319","0.0-11.0-0.161","106","2022-3-23","15:34:24","1","20","[""White""]","No","Female","1075205","","","","","","","","285","113","140","33","40","1",""
"null","null","clear_screen","canvas-keyboard-response","334","679579","0.0-11.0-1.161","106","2022-3-23","15:34:24","1","20","[""White""]","No","Female","1075205","","","","","","","","285","113","140","33","40","",""
"1343","7","rating","canvas-keyboard-response","335","680935","0.0-11.0-0.162","106","2022-3-23","15:34:24","1","20","[""White""]","No","Female","1075205","","","","","","","","131","57","113","17","17","1",""
"null","null","clear_screen","canvas-keyboard-response","336","681194","0.0-11.0-1.162","106","2022-3-23","15:34:24","1","20","[""White""]","No","Female","1075205","","","","","","","","131","57","113","17","17","",""
"1201","7","rating","canvas-keyboard-response","337","682407","0.0-11.0-0.163","106","2022-3-23","15:34:24","1","20","[""White""]","No","Female","1075205","","","","","","","","80","113","140","10","25","1",""
"null","null","clear_screen","canvas-keyboard-response","338","682667","0.0-11.0-1.163","106","2022-3-23","15:34:24","1","20","[""White""]","No","Female","1075205","","","","","","","","80","113","140","10","25","",""
"2647","2","rating","canvas-keyboard-response","339","685327","0.0-11.0-0.164","106","2022-3-23","15:34:24","1","20","[""White""]","No","Female","1075205","","","","","","","","192","140","57","17","40","1",""
"null","null","clear_screen","canvas-keyboard-response","340","685587","0.0-11.0-1.164","106","2022-3-23","15:34:24","1","20","[""White""]","No","Female","1075205","","","","","","","","192","140","57","17","40","",""
"1247","7","rating","canvas-keyboard-response","341","686847","0.0-11.0-0.165","106","2022-3-23","15:34:24","1","20","[""White""]","No","Female","1075205","","","","","","","","196","30","57","25","25","1",""
"null","null","clear_screen","canvas-keyboard-response","342","687106","0.0-11.0-1.165","106","2022-3-23","15:34:24","1","20","[""White""]","No","Female","1075205","","","","","","","","196","30","57","25","25","",""
"1483","4","rating","canvas-keyboard-response","343","688599","0.0-11.0-0.166","106","2022-3-23","15:34:24","1","20","[""White""]","No","Female","1075205","","","","","","","","181","140","30","17","25","1",""
"null","null","clear_screen","canvas-keyboard-response","344","688860","0.0-11.0-1.166","106","2022-3-23","15:34:24","1","20","[""White""]","No","Female","1075205","","","","","","","","181","140","30","17","25","",""
"2488","1","rating","canvas-keyboard-response","345","691357","0.0-11.0-0.167","106","2022-3-23","15:34:24","1","20","[""White""]","No","Female","1075205","","","","","","","","96","140","30","10","25","1",""
"null","null","clear_screen","canvas-keyboard-response","346","691618","0.0-11.0-1.167","106","2022-3-23","15:34:24","1","20","[""White""]","No","Female","1075205","","","","","","","","96","140","30","10","25","",""
"1171","9","rating","canvas-keyboard-response","347","692799","0.0-11.0-0.168","106","2022-3-23","15:34:24","1","20","[""White""]","No","Female","1075205","","","","","","","","227","85","85","25","33","0",""
"null","null","clear_screen","canvas-keyboard-response","348","693059","0.0-11.0-1.168","106","2022-3-23","15:34:24","1","20","[""White""]","No","Female","1075205","","","","","","","","227","85","85","25","33","",""
"2331","7","rating","canvas-keyboard-response","349","695406","0.0-11.0-0.169","106","2022-3-23","15:34:24","1","20","[""White""]","No","Female","1075205","","","","","","","","84","113","113","10","33","1",""
"null","null","clear_screen","canvas-keyboard-response","350","695665","0.0-11.0-1.169","106","2022-3-23","15:34:24","1","20","[""White""]","No","Female","1075205","","","","","","","","84","113","113","10","33","",""
"1047","8","rating","canvas-keyboard-response","351","696727","0.0-11.0-0.170","106","2022-3-23","15:34:24","1","20","[""White""]","No","Female","1075205","","","","","","","","278","85","113","33","40","1",""
"null","null","clear_screen","canvas-keyboard-response","352","696987","0.0-11.0-1.170","106","2022-3-23","15:34:24","1","20","[""White""]","No","Female","1075205","","","","","","","","278","85","113","33","40","",""
"3486","3","rating","canvas-keyboard-response","353","700487","0.0-11.0-0.171","106","2022-3-23","15:34:24","1","20","[""White""]","No","Female","1075205","","","","","","","","77","113","57","10","25","0",""
"null","null","clear_screen","canvas-keyboard-response","354","700747","0.0-11.0-1.171","106","2022-3-23","15:34:24","1","20","[""White""]","No","Female","1075205","","","","","","","","77","113","57","10","25","",""
"1846","3","rating","canvas-keyboard-response","355","702607","0.0-11.0-0.172","106","2022-3-23","15:34:24","1","20","[""White""]","No","Female","1075205","","","","","","","","36","57","113","10","25","1",""
"null","null","clear_screen","canvas-keyboard-response","356","702866","0.0-11.0-1.172","106","2022-3-23","15:34:24","1","20","[""White""]","No","Female","1075205","","","","","","","","36","57","113","10","25","",""
"2466","6","rating","canvas-keyboard-response","357","705343","0.0-11.0-0.173","106","2022-3-23","15:34:24","1","20","[""White""]","No","Female","1075205","","","","","","","","90","113","140","10","40","0",""
"null","null","clear_screen","canvas-keyboard-response","358","705603","0.0-11.0-1.173","106","2022-3-23","15:34:24","1","20","[""White""]","No","Female","1075205","","","","","","","","90","113","140","10","40","",""
"9074","6","rating","canvas-keyboard-response","359","714688","0.0-11.0-0.174","106","2022-3-23","15:34:24","1","20","[""White""]","No","Female","1075205","","","","","","","","182","140","57","17","25","0",""
"null","null","clear_screen","canvas-keyboard-response","360","714950","0.0-11.0-1.174","106","2022-3-23","15:34:24","1","20","[""White""]","No","Female","1075205","","","","","","","","182","140","57","17","25","",""
"1267","6","rating","canvas-keyboard-response","361","716231","0.0-11.0-0.175","106","2022-3-23","15:34:24","1","20","[""White""]","No","Female","1075205","","","","","","","","220","57","85","25","40","1",""
"null","null","clear_screen","canvas-keyboard-response","362","716492","0.0-11.0-1.175","106","2022-3-23","15:34:24","1","20","[""White""]","No","Female","1075205","","","","","","","","220","57","85","25","40","",""
"1862","3","rating","canvas-keyboard-response","363","718368","0.0-11.0-0.176","106","2022-3-23","15:34:24","1","20","[""White""]","No","Female","1075205","","","","","","","","101","140","30","10","33","0",""
"null","null","clear_screen","canvas-keyboard-response","364","718629","0.0-11.0-1.176","106","2022-3-23","15:34:24","1","20","[""White""]","No","Female","1075205","","","","","","","","101","140","30","10","33","",""
"1887","4","rating","canvas-keyboard-response","365","720528","0.0-11.0-0.177","106","2022-3-23","15:34:24","1","20","[""White""]","No","Female","1075205","","","","","","","","253","140","85","25","40","0",""
"null","null","clear_screen","canvas-keyboard-response","366","720787","0.0-11.0-1.177","106","2022-3-23","15:34:24","1","20","[""White""]","No","Female","1075205","","","","","","","","253","140","85","25","40","",""
"1982","6","rating","canvas-keyboard-response","367","722783","0.0-11.0-0.178","106","2022-3-23","15:34:24","1","20","[""White""]","No","Female","1075205","","","","","","","","195","140","140","17","40","0",""
"null","null","clear_screen","canvas-keyboard-response","368","723044","0.0-11.0-1.178","106","2022-3-23","15:34:24","1","20","[""White""]","No","Female","1075205","","","","","","","","195","140","140","17","40","",""
"2437","6","rating","canvas-keyboard-response","369","725495","0.0-11.0-0.179","106","2022-3-23","15:34:24","1","20","[""White""]","No","Female","1075205","","","","","","","","35","57","85","10","25","1",""
"null","null","clear_screen","canvas-keyboard-response","370","725759","0.0-11.0-1.179","106","2022-3-23","15:34:24","1","20","[""White""]","No","Female","1075205","","","","","","","","35","57","85","10","25","",""
"1299","3","rating","canvas-keyboard-response","371","727071","0.0-11.0-0.180","106","2022-3-23","15:34:24","1","20","[""White""]","No","Female","1075205","","","","","","","","60","85","30","10","33","1",""
"null","null","clear_screen","canvas-keyboard-response","372","727333","0.0-11.0-1.180","106","2022-3-23","15:34:24","1","20","[""White""]","No","Female","1075205","","","","","","","","60","85","30","10","33","",""
"3397","9","rating","canvas-keyboard-response","373","730743","0.0-11.0-0.181","106","2022-3-23","15:34:24","1","20","[""White""]","No","Female","1075205","","","","","","","","295","57","85","40","40","1",""
"null","null","clear_screen","canvas-keyboard-response","374","731002","0.0-11.0-1.181","106","2022-3-23","15:34:24","1","20","[""White""]","No","Female","1075205","","","","","","","","295","57","85","40","40","",""
"2274","8","rating","canvas-keyboard-response","375","733288","0.0-11.0-0.182","106","2022-3-23","15:34:24","1","20","[""White""]","No","Female","1075205","","","","","","","","190","140","140","17","33","1",""
"null","null","clear_screen","canvas-keyboard-response","376","733549","0.0-11.0-1.182","106","2022-3-23","15:34:24","1","20","[""White""]","No","Female","1075205","","","","","","","","190","140","140","17","33","",""
"1311","3","rating","canvas-keyboard-response","377","734871","0.0-11.0-0.183","106","2022-3-23","15:34:24","1","20","[""White""]","No","Female","1075205","","","","","","","","42","57","140","10","33","1",""
"null","null","clear_screen","canvas-keyboard-response","378","735131","0.0-11.0-1.183","106","2022-3-23","15:34:24","1","20","[""White""]","No","Female","1075205","","","","","","","","42","57","140","10","33","",""
"1071","3","rating","canvas-keyboard-response","379","736216","0.0-11.0-0.184","106","2022-3-23","15:34:24","1","20","[""White""]","No","Female","1075205","","","","","","","","114","30","140","17","17","0",""
"null","null","clear_screen","canvas-keyboard-response","380","736475","0.0-11.0-1.184","106","2022-3-23","15:34:24","1","20","[""White""]","No","Female","1075205","","","","","","","","114","30","140","17","17","",""
"1174","3","rating","canvas-keyboard-response","381","737663","0.0-11.0-0.185","106","2022-3-23","15:34:24","1","20","[""White""]","No","Female","1075205","","","","","","","","137","57","140","17","25","0",""
"null","null","clear_screen","canvas-keyboard-response","382","737926","0.0-11.0-1.185","106","2022-3-23","15:34:24","1","20","[""White""]","No","Female","1075205","","","","","","","","137","57","140","17","25","",""
"2284","7","rating","canvas-keyboard-response","383","740223","0.0-11.0-0.186","106","2022-3-23","15:34:24","1","20","[""White""]","No","Female","1075205","","","","","","","","237","113","57","25","33","0",""
"null","null","clear_screen","canvas-keyboard-response","384","740483","0.0-11.0-1.186","106","2022-3-23","15:34:24","1","20","[""White""]","No","Female","1075205","","","","","","","","237","113","57","25","33","",""
"1569","7","rating","canvas-keyboard-response","385","742063","0.0-11.0-0.187","106","2022-3-23","15:34:24","1","20","[""White""]","No","Female","1075205","","","","","","","","174","113","113","17","33","1",""
"null","null","clear_screen","canvas-keyboard-response","386","742326","0.0-11.0-1.187","106","2022-3-23","15:34:24","1","20","[""White""]","No","Female","1075205","","","","","","","","174","113","113","17","33","",""
"1767","4","rating","canvas-keyboard-response","387","744103","0.0-11.0-0.188","106","2022-3-23","15:34:24","1","20","[""White""]","No","Female","1075205","","","","","","","","128","30","113","17","40","1",""
"null","null","clear_screen","canvas-keyboard-response","388","744367","0.0-11.0-1.188","106","2022-3-23","15:34:24","1","20","[""White""]","No","Female","1075205","","","","","","","","128","30","113","17","40","",""
"2893","6","rating","canvas-keyboard-response","389","747271","0.0-11.0-0.189","106","2022-3-23","15:34:24","1","20","[""White""]","No","Female","1075205","","","","","","","","238","113","85","25","33","1",""
"null","null","clear_screen","canvas-keyboard-response","390","747532","0.0-11.0-1.189","106","2022-3-23","15:34:24","1","20","[""White""]","No","Female","1075205","","","","","","","","238","113","85","25","33","",""
"24680","3","rating","canvas-keyboard-response","391","772223","0.0-11.0-0.190","106","2022-3-23","15:34:24","1","20","[""White""]","No","Female","1075205","","","","","","","","72","113","57","10","17","1",""
"null","null","clear_screen","canvas-keyboard-response","392","772483","0.0-11.0-1.190","106","2022-3-23","15:34:24","1","20","[""White""]","No","Female","1075205","","","","","","","","72","113","57","10","17","",""
"2304","7","rating","canvas-keyboard-response","393","774799","0.0-11.0-0.191","106","2022-3-23","15:34:24","1","20","[""White""]","No","Female","1075205","","","","","","","","273","85","113","33","33","1",""
"null","null","clear_screen","canvas-keyboard-response","394","775059","0.0-11.0-1.191","106","2022-3-23","15:34:24","1","20","[""White""]","No","Female","1075205","","","","","","","","273","85","113","33","33","",""
"1393","5","rating","canvas-keyboard-response","395","776463","0.0-11.0-0.192","106","2022-3-23","15:34:24","1","20","[""White""]","No","Female","1075205","","","","","","","","256","30","57","33","33","1",""
"null","null","clear_screen","canvas-keyboard-response","396","776722","0.0-11.0-1.192","106","2022-3-23","15:34:24","1","20","[""White""]","No","Female","1075205","","","","","","","","256","30","57","33","33","",""
"2138","2","rating","canvas-keyboard-response","397","778871","0.0-11.0-0.193","106","2022-3-23","15:34:24","1","20","[""White""]","No","Female","1075205","","","","","","","","82","113","57","10","33","0",""
"null","null","clear_screen","canvas-keyboard-response","398","779131","0.0-11.0-1.193","106","2022-3-23","15:34:24","1","20","[""White""]","No","Female","1075205","","","","","","","","82","113","57","10","33","",""
"2353","4","rating","canvas-keyboard-response","399","781496","0.0-11.0-0.194","106","2022-3-23","15:34:24","1","20","[""White""]","No","Female","1075205","","","","","","","","3","30","113","10","10","1",""
"null","null","clear_screen","canvas-keyboard-response","400","781760","0.0-11.0-1.194","106","2022-3-23","15:34:24","1","20","[""White""]","No","Female","1075205","","","","","","","","3","30","113","10","10","",""
"4904","6","rating","canvas-keyboard-response","401","786680","0.0-11.0-0.195","106","2022-3-23","15:34:24","1","20","[""White""]","No","Female","1075205","","","","","","","","117","30","85","17","25","0",""
"null","null","clear_screen","canvas-keyboard-response","402","786940","0.0-11.0-1.195","106","2022-3-23","15:34:24","1","20","[""White""]","No","Female","1075205","","","","","","","","117","30","85","17","25","",""
"1846","2","rating","canvas-keyboard-response","403","788800","0.0-11.0-0.196","106","2022-3-23","15:34:24","1","20","[""White""]","No","Female","1075205","","","","","","","","186","140","30","17","33","1",""
"null","null","clear_screen","canvas-keyboard-response","404","789062","0.0-11.0-1.196","106","2022-3-23","15:34:24","1","20","[""White""]","No","Female","1075205","","","","","","","","186","140","30","17","33","",""
"2986","3","rating","canvas-keyboard-response","405","792063","0.0-11.0-0.197","106","2022-3-23","15:34:24","1","20","[""White""]","No","Female","1075205","","","","","","","","61","85","57","10","33","0",""
"null","null","clear_screen","canvas-keyboard-response","406","792322","0.0-11.0-1.197","106","2022-3-23","15:34:24","1","20","[""White""]","No","Female","1075205","","","","","","","","61","85","57","10","33","",""
"1833","2","rating","canvas-keyboard-response","407","794167","0.0-11.0-0.198","106","2022-3-23","15:34:24","1","20","[""White""]","No","Female","1075205","","","","","","","","241","113","30","25","40","0",""
"null","null","clear_screen","canvas-keyboard-response","408","794428","0.0-11.0-1.198","106","2022-3-23","15:34:24","1","20","[""White""]","No","Female","1075205","","","","","","","","241","113","30","25","40","",""
"2310","4","rating","canvas-keyboard-response","409","796752","0.0-11.0-0.199","106","2022-3-23","15:34:24","1","20","[""White""]","No","Female","1075205","","","","","","","","163","85","113","17","40","1",""
"null","null","clear_screen","canvas-keyboard-response","410","797012","0.0-11.0-1.199","106","2022-3-23","15:34:24","1","20","[""White""]","No","Female","1075205","","","","","","","","163","85","113","17","40","",""
"1983","5","rating","canvas-keyboard-response","411","799008","0.0-11.0-0.200","106","2022-3-23","15:34:24","1","20","[""White""]","No","Female","1075205","","","","","","","","180","113","140","17","40","1",""
"null","null","clear_screen","canvas-keyboard-response","412","799270","0.0-11.0-1.200","106","2022-3-23","15:34:24","1","20","[""White""]","No","Female","1075205","","","","","","","","180","113","140","17","40","",""
"1079","5","rating","canvas-keyboard-response","413","800359","0.0-11.0-0.201","106","2022-3-23","15:34:24","1","20","[""White""]","No","Female","1075205","","","","","","","","69","85","140","10","40","1",""
"null","null","clear_screen","canvas-keyboard-response","414","800623","0.0-11.0-1.201","106","2022-3-23","15:34:24","1","20","[""White""]","No","Female","1075205","","","","","","","","69","85","140","10","40","",""
"1317","5","rating","canvas-keyboard-response","415","801951","0.0-11.0-0.202","106","2022-3-23","15:34:24","1","20","[""White""]","No","Female","1075205","","","","","","","","144","57","57","17","40","1",""
"null","null","clear_screen","canvas-keyboard-response","416","802211","0.0-11.0-1.202","106","2022-3-23","15:34:24","1","20","[""White""]","No","Female","1075205","","","","","","","","144","57","57","17","40","",""
"1650","6","rating","canvas-keyboard-response","417","803871","0.0-11.0-0.203","106","2022-3-23","15:34:24","1","20","[""White""]","No","Female","1075205","","","","","","","","141","57","113","17","33","1",""
"null","null","clear_screen","canvas-keyboard-response","418","804134","0.0-11.0-1.203","106","2022-3-23","15:34:24","1","20","[""White""]","No","Female","1075205","","","","","","","","141","57","113","17","33","",""
"2527","5","rating","canvas-keyboard-response","419","806672","0.0-11.0-0.204","106","2022-3-23","15:34:24","1","20","[""White""]","No","Female","1075205","","","","","","","","67","85","85","10","40","1",""
"null","null","clear_screen","canvas-keyboard-response","420","806932","0.0-11.0-1.204","106","2022-3-23","15:34:24","1","20","[""White""]","No","Female","1075205","","","","","","","","67","85","85","10","40","",""
"1222","4","rating","canvas-keyboard-response","421","808167","0.0-11.0-0.205","106","2022-3-23","15:34:24","1","20","[""White""]","No","Female","1075205","","","","","","","","113","30","113","17","17","1",""
"null","null","clear_screen","canvas-keyboard-response","422","808427","0.0-11.0-1.205","106","2022-3-23","15:34:24","1","20","[""White""]","No","Female","1075205","","","","","","","","113","30","113","17","17","",""
"2145","4","rating","canvas-keyboard-response","423","810584","0.0-11.0-0.206","106","2022-3-23","15:34:24","1","20","[""White""]","No","Female","1075205","","","","","","","","193","140","85","17","40","0",""
"null","null","clear_screen","canvas-keyboard-response","424","810843","0.0-11.0-1.206","106","2022-3-23","15:34:24","1","20","[""White""]","No","Female","1075205","","","","","","","","193","140","85","17","40","",""
"1633","6","rating","canvas-keyboard-response","425","812488","0.0-11.0-0.207","106","2022-3-23","15:34:24","1","20","[""White""]","No","Female","1075205","","","","","","","","74","113","113","10","17","1",""
"null","null","clear_screen","canvas-keyboard-response","426","812747","0.0-11.0-1.207","106","2022-3-23","15:34:24","1","20","[""White""]","No","Female","1075205","","","","","","","","74","113","113","10","17","",""
"1759","4","rating","canvas-keyboard-response","427","814520","0.0-11.0-0.208","106","2022-3-23","15:34:24","1","20","[""White""]","No","Female","1075205","","","","","","","","108","140","85","10","40","1",""
"null","null","clear_screen","canvas-keyboard-response","428","814780","0.0-11.0-1.208","106","2022-3-23","15:34:24","1","20","[""White""]","No","Female","1075205","","","","","","","","108","140","85","10","40","",""
"3334","4","rating","canvas-keyboard-response","429","818127","0.0-11.0-0.209","106","2022-3-23","15:34:24","1","20","[""White""]","No","Female","1075205","","","","","","","","66","85","57","10","40","0",""
"null","null","clear_screen","canvas-keyboard-response","430","818386","0.0-11.0-1.209","106","2022-3-23","15:34:24","1","20","[""White""]","No","Female","1075205","","","","","","","","66","85","57","10","40","",""
"1759","2","rating","canvas-keyboard-response","431","820159","0.0-11.0-0.210","106","2022-3-23","15:34:24","1","20","[""White""]","No","Female","1075205","","","","","","","","246","140","30","25","33","0",""
"null","null","clear_screen","canvas-keyboard-response","432","820423","0.0-11.0-1.210","106","2022-3-23","15:34:24","1","20","[""White""]","No","Female","1075205","","","","","","","","246","140","30","25","33","",""
"1418","3","rating","canvas-keyboard-response","433","821854","0.0-11.0-0.211","106","2022-3-23","15:34:24","1","20","[""White""]","No","Female","1075205","","","","","","","","41","57","113","10","33","0",""
"null","null","clear_screen","canvas-keyboard-response","434","822114","0.0-11.0-1.211","106","2022-3-23","15:34:24","1","20","[""White""]","No","Female","1075205","","","","","","","","41","57","113","10","33","",""
"1922","5","rating","canvas-keyboard-response","435","824047","0.0-11.0-0.212","106","2022-3-23","15:34:24","1","20","[""White""]","No","Female","1075205","","","","","","","","225","85","30","25","33","1",""
"null","null","clear_screen","canvas-keyboard-response","436","824307","0.0-11.0-1.212","106","2022-3-23","15:34:24","1","20","[""White""]","No","Female","1075205","","","","","","","","225","85","30","25","33","",""
"1872","5","rating","canvas-keyboard-response","437","826191","0.0-11.0-0.213","106","2022-3-23","15:34:24","1","20","[""White""]","No","Female","1075205","","","","","","","","32","57","140","10","17","1",""
"null","null","clear_screen","canvas-keyboard-response","438","826451","0.0-11.0-1.213","106","2022-3-23","15:34:24","1","20","[""White""]","No","Female","1075205","","","","","","","","32","57","140","10","17","",""
"902","5","rating","canvas-keyboard-response","439","827367","0.0-11.0-0.214","106","2022-3-23","15:34:24","1","20","[""White""]","No","Female","1075205","","","","","","","","92","140","57","10","17","0",""
"null","null","clear_screen","canvas-keyboard-response","440","827627","0.0-11.0-1.214","106","2022-3-23","15:34:24","1","20","[""White""]","No","Female","1075205","","","","","","","","92","140","57","10","17","",""
"1649","5","rating","canvas-keyboard-response","441","829287","0.0-11.0-0.215","106","2022-3-23","15:34:24","1","20","[""White""]","No","Female","1075205","","","","","","","","56","85","57","10","25","0",""
"null","null","clear_screen","canvas-keyboard-response","442","829550","0.0-11.0-1.215","106","2022-3-23","15:34:24","1","20","[""White""]","No","Female","1075205","","","","","","","","56","85","57","10","25","",""
"3236","2","rating","canvas-keyboard-response","443","832799","0.0-11.0-0.216","106","2022-3-23","15:34:24","1","20","[""White""]","No","Female","1075205","","","","","","","","293","30","113","40","40","0",""
"null","null","clear_screen","canvas-keyboard-response","444","833061","0.0-11.0-1.216","106","2022-3-23","15:34:24","1","20","[""White""]","No","Female","1075205","","","","","","","","293","30","113","40","40","",""
"1510","7","rating","canvas-keyboard-response","445","834583","0.0-11.0-0.217","106","2022-3-23","15:34:24","1","20","[""White""]","No","Female","1075205","","","","","","","","26","57","113","10","10","0",""
"null","null","clear_screen","canvas-keyboard-response","446","834843","0.0-11.0-1.217","106","2022-3-23","15:34:24","1","20","[""White""]","No","Female","1075205","","","","","","","","26","57","113","10","10","",""
"1463","7","rating","canvas-keyboard-response","447","836319","0.0-11.0-0.218","106","2022-3-23","15:34:24","1","20","[""White""]","No","Female","1075205","","","","","","","","1","30","57","10","10","0",""
"null","null","clear_screen","canvas-keyboard-response","448","836579","0.0-11.0-1.218","106","2022-3-23","15:34:24","1","20","[""White""]","No","Female","1075205","","","","","","","","1","30","57","10","10","",""
"2264","8","rating","canvas-keyboard-response","449","838855","0.0-11.0-0.219","106","2022-3-23","15:34:24","1","20","[""White""]","No","Female","1075205","","","","","","","","219","57","57","25","40","0",""
"null","null","clear_screen","canvas-keyboard-response","450","839115","0.0-11.0-1.219","106","2022-3-23","15:34:24","1","20","[""White""]","No","Female","1075205","","","","","","","","219","57","57","25","40","",""
"1145","8","rating","canvas-keyboard-response","451","840271","0.0-11.0-0.220","106","2022-3-23","15:34:24","1","20","[""White""]","No","Female","1075205","","","","","","","","134","57","57","17","25","1",""
"null","null","clear_screen","canvas-keyboard-response","452","840532","0.0-11.0-1.220","106","2022-3-23","15:34:24","1","20","[""White""]","No","Female","1075205","","","","","","","","134","57","57","17","25","",""
"2296","6","rating","canvas-keyboard-response","453","842839","0.0-11.0-0.221","106","2022-3-23","15:34:24","1","20","[""White""]","No","Female","1075205","","","","","","","","46","57","113","10","40","1",""
"null","null","clear_screen","canvas-keyboard-response","454","843099","0.0-11.0-1.221","106","2022-3-23","15:34:24","1","20","[""White""]","No","Female","1075205","","","","","","","","46","57","113","10","40","",""
"1127","7","rating","canvas-keyboard-response","455","844239","0.0-11.0-0.222","106","2022-3-23","15:34:24","1","20","[""White""]","No","Female","1075205","","","","","","","","52","85","85","10","17","1",""
"null","null","clear_screen","canvas-keyboard-response","456","844499","0.0-11.0-1.222","106","2022-3-23","15:34:24","1","20","[""White""]","No","Female","1075205","","","","","","","","52","85","85","10","17","",""
"1990","7","rating","canvas-keyboard-response","457","846502","0.0-11.0-0.223","106","2022-3-23","15:34:24","1","20","[""White""]","No","Female","1075205","","","","","","","","33","57","30","10","25","0",""
"null","null","clear_screen","canvas-keyboard-response","458","846762","0.0-11.0-1.223","106","2022-3-23","15:34:24","1","20","[""White""]","No","Female","1075205","","","","","","","","33","57","30","10","25","",""
"1401","4","rating","canvas-keyboard-response","459","848175","0.0-11.0-0.224","106","2022-3-23","15:34:24","1","20","[""White""]","No","Female","1075205","","","","","","","","102","140","57","10","33","0",""
"null","null","clear_screen","canvas-keyboard-response","460","848435","0.0-11.0-1.224","106","2022-3-23","15:34:24","1","20","[""White""]","No","Female","1075205","","","","","","","","102","140","57","10","33","",""
"1401","4","rating","canvas-keyboard-response","461","849847","0.0-11.0-0.225","106","2022-3-23","15:34:24","1","20","[""White""]","No","Female","1075205","","","","","","","","4","30","140","10","10","1",""
"null","null","clear_screen","canvas-keyboard-response","462","850108","0.0-11.0-1.225","106","2022-3-23","15:34:24","1","20","[""White""]","No","Female","1075205","","","","","","","","4","30","140","10","10","",""
"1461","7","rating","canvas-keyboard-response","463","851583","0.0-11.0-0.226","106","2022-3-23","15:34:24","1","20","[""White""]","No","Female","1075205","","","","","","","","70","113","140","10","10","1",""
