"rt","response","trialType","trial_type","trial_index","time_elapsed","internal_node_id","sub_n","date","time","leftRight","age","race","ethnicity","gender","exp_duration","success","timeout","failed_images","failed_audio","failed_video","stimulus","view_history","trialID","radius_a","radius_b","angle_a","angle_b","lrCond","question_order"
"55898","{""response"":""111""}","enter-sub-number","survey-html-form","0","55911","0.0-0.0","111","2022-3-30","13:18:48","0","21","[""White""]","No","Female","1383551","","","","","","","","","","","","","",""
"","","","fullscreen","1","57766","0.0-1.0","111","2022-3-30","13:18:48","0","21","[""White""]","No","Female","1383551","true","","","","","","","","","","","","",""
"","","","preload","2","57783","0.0-2.0","111","2022-3-30","13:18:48","0","21","[""White""]","No","Female","1383551","true","false","[]","[]","[]","","","","","","","","",""
"100559","0","","html-button-response","3","158344","0.0-3.0","111","2022-3-30","13:18:48","0","21","[""White""]","No","Female","1383551","","","","","","<div style= ""font-size:25px;"" <p> <strong> Welcome to the experiment! </strong><br> <p style=""color:#8B0000; font-size:25px;""><strong> Please do NOT exit full screen until you are done with the experiment. </strong> </p><p style=""font-size:25px;color:#8B0000;""> <strong> The experiment will be canceled and your data will be lost <br> if you try to go back or refresh the page at any point during the experiment.</strong> </p><br><p> <strong> Thanks in advance for your contribution to our research! </strong></p>","","","","","","","",""
"37931","","","instructions","4","196277","0.0-4.0","111","2022-3-30","13:18:48","0","21","[""White""]","No","Female","1383551","","","","","","","[{""page_index"":0,""viewing_time"":12771},{""page_index"":1,""viewing_time"":14359},{""page_index"":2,""viewing_time"":10800}]","","","","","","",""
"null","null","presentPop","canvas-keyboard-response","5","212290","0.0-5.0","111","2022-3-30","13:18:48","0","21","[""White""]","No","Female","1383551","","","","","","","","","","","","","",""
"null","null","clear_screen","canvas-keyboard-response","6","213053","0.0-6.0","111","2022-3-30","13:18:48","0","21","[""White""]","No","Female","1383551","","","","","","","","","","","","","",""
"2111","","","instructions","7","215167","0.0-7.0","111","2022-3-30","13:18:48","0","21","[""White""]","No","Female","1383551","","","","","","","[{""page_index"":0,""viewing_time"":2111}]","","","","","","",""
"null","null","presentPop","canvas-keyboard-response","8","231182","0.0-8.0","111","2022-3-30","13:18:48","0","21","[""White""]","No","Female","1383551","","","","","","","","","","","","","",""
"null","null","clear_screen","canvas-keyboard-response","9","231946","0.0-9.0","111","2022-3-30","13:18:48","0","21","[""White""]","No","Female","1383551","","","","","","","","","","","","","",""
"11425","","","instructions","10","243373","0.0-10.0","111","2022-3-30","13:18:48","0","21","[""White""]","No","Female","1383551","","","","","","","[{""page_index"":0,""viewing_time"":5993},{""page_index"":1,""viewing_time"":5432}]","","","","","","",""
"4907","6","rating","canvas-keyboard-response","11","249294","0.0-11.0-0.0","111","2022-3-30","13:18:48","0","21","[""White""]","No","Female","1383551","","","","","","","","87","113","57","10","40","0",""
"null","null","clear_screen","canvas-keyboard-response","12","249550","0.0-11.0-1.0","111","2022-3-30","13:18:48","0","21","[""White""]","No","Female","1383551","","","","","","","","87","113","57","10","40","",""
"4969","5","rating","canvas-keyboard-response","13","254532","0.0-11.0-0.1","111","2022-3-30","13:18:48","0","21","[""White""]","No","Female","1383551","","","","","","","","59","85","140","10","25","0",""
"null","null","clear_screen","canvas-keyboard-response","14","254790","0.0-11.0-1.1","111","2022-3-30","13:18:48","0","21","[""White""]","No","Female","1383551","","","","","","","","59","85","140","10","25","",""
"3544","8","rating","canvas-keyboard-response","15","258351","0.0-11.0-0.2","111","2022-3-30","13:18:48","0","21","[""White""]","No","Female","1383551","","","","","","","","300","113","140","40","40","1",""
"null","null","clear_screen","canvas-keyboard-response","16","258610","0.0-11.0-1.2","111","2022-3-30","13:18:48","0","21","[""White""]","No","Female","1383551","","","","","","","","300","113","140","40","40","",""
"4590","4","rating","canvas-keyboard-response","17","263214","0.0-11.0-0.3","111","2022-3-30","13:18:48","0","21","[""White""]","No","Female","1383551","","","","","","","","50","85","30","10","17","1",""
"null","null","clear_screen","canvas-keyboard-response","18","263475","0.0-11.0-1.3","111","2022-3-30","13:18:48","0","21","[""White""]","No","Female","1383551","","","","","","","","50","85","30","10","17","",""
"4884","6","rating","canvas-keyboard-response","19","268373","0.0-11.0-0.4","111","2022-3-30","13:18:48","0","21","[""White""]","No","Female","1383551","","","","","","","","207","30","85","25","40","1",""
"null","null","clear_screen","canvas-keyboard-response","20","268635","0.0-11.0-1.4","111","2022-3-30","13:18:48","0","21","[""White""]","No","Female","1383551","","","","","","","","207","30","85","25","40","",""
"4438","6","rating","canvas-keyboard-response","21","273086","0.0-11.0-0.5","111","2022-3-30","13:18:48","0","21","[""White""]","No","Female","1383551","","","","","","","","11","30","57","10","25","1",""
"null","null","clear_screen","canvas-keyboard-response","22","273343","0.0-11.0-1.5","111","2022-3-30","13:18:48","0","21","[""White""]","No","Female","1383551","","","","","","","","11","30","57","10","25","",""
"5672","4","rating","canvas-keyboard-response","23","279022","0.0-11.0-0.6","111","2022-3-30","13:18:48","0","21","[""White""]","No","Female","1383551","","","","","","","","132","57","140","17","17","0",""
"null","null","clear_screen","canvas-keyboard-response","24","279281","0.0-11.0-1.6","111","2022-3-30","13:18:48","0","21","[""White""]","No","Female","1383551","","","","","","","","132","57","140","17","17","",""
"4980","4","rating","canvas-keyboard-response","25","284277","0.0-11.0-0.7","111","2022-3-30","13:18:48","0","21","[""White""]","No","Female","1383551","","","","","","","","287","140","57","33","40","0",""
"null","null","clear_screen","canvas-keyboard-response","26","284537","0.0-11.0-1.7","111","2022-3-30","13:18:48","0","21","[""White""]","No","Female","1383551","","","","","","","","287","140","57","33","40","",""
"6781","7","rating","canvas-keyboard-response","27","291333","0.0-11.0-0.8","111","2022-3-30","13:18:48","0","21","[""White""]","No","Female","1383551","","","","","","","","223","85","113","25","25","0",""
"null","null","clear_screen","canvas-keyboard-response","28","291592","0.0-11.0-1.8","111","2022-3-30","13:18:48","0","21","[""White""]","No","Female","1383551","","","","","","","","223","85","113","25","25","",""
"2248","8","rating","canvas-keyboard-response","29","293853","0.0-11.0-0.9","111","2022-3-30","13:18:48","0","21","[""White""]","No","Female","1383551","","","","","","","","115","30","30","17","25","1",""
"null","null","clear_screen","canvas-keyboard-response","30","294113","0.0-11.0-1.9","111","2022-3-30","13:18:48","0","21","[""White""]","No","Female","1383551","","","","","","","","115","30","30","17","25","",""
"2783","6","rating","canvas-keyboard-response","31","296910","0.0-11.0-0.10","111","2022-3-30","13:18:48","0","21","[""White""]","No","Female","1383551","","","","","","","","275","85","30","33","40","0",""
"null","null","clear_screen","canvas-keyboard-response","32","297169","0.0-11.0-1.10","111","2022-3-30","13:18:48","0","21","[""White""]","No","Female","1383551","","","","","","","","275","85","30","33","40","",""
"2239","4","rating","canvas-keyboard-response","33","299421","0.0-11.0-0.11","111","2022-3-30","13:18:48","0","21","[""White""]","No","Female","1383551","","","","","","","","7","30","85","10","17","1",""
"null","null","clear_screen","canvas-keyboard-response","34","299684","0.0-11.0-1.11","111","2022-3-30","13:18:48","0","21","[""White""]","No","Female","1383551","","","","","","","","7","30","85","10","17","",""
"4006","6","rating","canvas-keyboard-response","35","303701","0.0-11.0-0.12","111","2022-3-30","13:18:48","0","21","[""White""]","No","Female","1383551","","","","","","","","148","85","113","17","17","0",""
"null","null","clear_screen","canvas-keyboard-response","36","303962","0.0-11.0-1.12","111","2022-3-30","13:18:48","0","21","[""White""]","No","Female","1383551","","","","","","","","148","85","113","17","17","",""
"2725","4","rating","canvas-keyboard-response","37","306702","0.0-11.0-0.13","111","2022-3-30","13:18:48","0","21","[""White""]","No","Female","1383551","","","","","","","","35","57","85","10","25","1",""
"null","null","clear_screen","canvas-keyboard-response","38","306962","0.0-11.0-1.13","111","2022-3-30","13:18:48","0","21","[""White""]","No","Female","1383551","","","","","","","","35","57","85","10","25","",""
"2567","4","rating","canvas-keyboard-response","39","309541","0.0-11.0-0.14","111","2022-3-30","13:18:48","0","21","[""White""]","No","Female","1383551","","","","","","","","6","30","57","10","17","0",""
"null","null","clear_screen","canvas-keyboard-response","40","309799","0.0-11.0-1.14","111","2022-3-30","13:18:48","0","21","[""White""]","No","Female","1383551","","","","","","","","6","30","57","10","17","",""
"4529","4","rating","canvas-keyboard-response","41","314342","0.0-11.0-0.15","111","2022-3-30","13:18:48","0","21","[""White""]","No","Female","1383551","","","","","","","","84","113","113","10","33","0",""
"null","null","clear_screen","canvas-keyboard-response","42","314604","0.0-11.0-1.15","111","2022-3-30","13:18:48","0","21","[""White""]","No","Female","1383551","","","","","","","","84","113","113","10","33","",""
"7303","2","rating","canvas-keyboard-response","43","321918","0.0-11.0-0.16","111","2022-3-30","13:18:48","0","21","[""White""]","No","Female","1383551","","","","","","","","61","85","57","10","33","0",""
"null","null","clear_screen","canvas-keyboard-response","44","322177","0.0-11.0-1.16","111","2022-3-30","13:18:48","0","21","[""White""]","No","Female","1383551","","","","","","","","61","85","57","10","33","",""
"2649","3","rating","canvas-keyboard-response","45","324837","0.0-11.0-0.17","111","2022-3-30","13:18:48","0","21","[""White""]","No","Female","1383551","","","","","","","","97","140","57","10","25","0",""
"null","null","clear_screen","canvas-keyboard-response","46","325095","0.0-11.0-1.17","111","2022-3-30","13:18:48","0","21","[""White""]","No","Female","1383551","","","","","","","","97","140","57","10","25","",""
"5209","5","rating","canvas-keyboard-response","47","330316","0.0-11.0-0.18","111","2022-3-30","13:18:48","0","21","[""White""]","No","Female","1383551","","","","","","","","144","57","57","17","40","1",""
"null","null","clear_screen","canvas-keyboard-response","48","330580","0.0-11.0-1.18","111","2022-3-30","13:18:48","0","21","[""White""]","No","Female","1383551","","","","","","","","144","57","57","17","40","",""
"4898","7","rating","canvas-keyboard-response","49","335493","0.0-11.0-0.19","111","2022-3-30","13:18:48","0","21","[""White""]","No","Female","1383551","","","","","","","","94","140","113","10","17","0",""
"null","null","clear_screen","canvas-keyboard-response","50","335754","0.0-11.0-1.19","111","2022-3-30","13:18:48","0","21","[""White""]","No","Female","1383551","","","","","","","","94","140","113","10","17","",""
"6311","6","rating","canvas-keyboard-response","51","342077","0.0-11.0-0.20","111","2022-3-30","13:18:48","0","21","[""White""]","No","Female","1383551","","","","","","","","198","30","113","25","25","1",""
"null","null","clear_screen","canvas-keyboard-response","52","342337","0.0-11.0-1.20","111","2022-3-30","13:18:48","0","21","[""White""]","No","Female","1383551","","","","","","","","198","30","113","25","25","",""
"3497","2","rating","canvas-keyboard-response","53","345845","0.0-11.0-0.21","111","2022-3-30","13:18:48","0","21","[""White""]","No","Female","1383551","","","","","","","","40","57","85","10","33","0",""
"null","null","clear_screen","canvas-keyboard-response","54","346107","0.0-11.0-1.21","111","2022-3-30","13:18:48","0","21","[""White""]","No","Female","1383551","","","","","","","","40","57","85","10","33","",""
"4868","8","rating","canvas-keyboard-response","55","350989","0.0-11.0-0.22","111","2022-3-30","13:18:48","0","21","[""White""]","No","Female","1383551","","","","","","","","284","113","113","33","40","0",""
"null","null","clear_screen","canvas-keyboard-response","56","351249","0.0-11.0-1.22","111","2022-3-30","13:18:48","0","21","[""White""]","No","Female","1383551","","","","","","","","284","113","113","33","40","",""
"4485","4","rating","canvas-keyboard-response","57","355749","0.0-11.0-0.23","111","2022-3-30","13:18:48","0","21","[""White""]","No","Female","1383551","","","","","","","","168","113","85","17","25","1",""
"null","null","clear_screen","canvas-keyboard-response","58","356009","0.0-11.0-1.23","111","2022-3-30","13:18:48","0","21","[""White""]","No","Female","1383551","","","","","","","","168","113","85","17","25","",""
"3790","2","rating","canvas-keyboard-response","59","359813","0.0-11.0-0.24","111","2022-3-30","13:18:48","0","21","[""White""]","No","Female","1383551","","","","","","","","93","140","85","10","17","0",""
"null","null","clear_screen","canvas-keyboard-response","60","360072","0.0-11.0-1.24","111","2022-3-30","13:18:48","0","21","[""White""]","No","Female","1383551","","","","","","","","93","140","85","10","17","",""
"3463","8","rating","canvas-keyboard-response","61","363549","0.0-11.0-0.25","111","2022-3-30","13:18:48","0","21","[""White""]","No","Female","1383551","","","","","","","","265","57","85","33","33","0",""
"null","null","clear_screen","canvas-keyboard-response","62","363812","0.0-11.0-1.25","111","2022-3-30","13:18:48","0","21","[""White""]","No","Female","1383551","","","","","","","","265","57","85","33","33","",""
"3387","8","rating","canvas-keyboard-response","63","367215","0.0-11.0-0.26","111","2022-3-30","13:18:48","0","21","[""White""]","No","Female","1383551","","","","","","","","205","30","30","25","40","1",""
"null","null","clear_screen","canvas-keyboard-response","64","367475","0.0-11.0-1.26","111","2022-3-30","13:18:48","0","21","[""White""]","No","Female","1383551","","","","","","","","205","30","30","25","40","",""
"3774","9","rating","canvas-keyboard-response","65","371262","0.0-11.0-0.27","111","2022-3-30","13:18:48","0","21","[""White""]","No","Female","1383551","","","","","","","","278","85","113","33","40","0",""
"null","null","clear_screen","canvas-keyboard-response","66","371523","0.0-11.0-1.27","111","2022-3-30","13:18:48","0","21","[""White""]","No","Female","1383551","","","","","","","","278","85","113","33","40","",""
"5156","1","rating","canvas-keyboard-response","67","376694","0.0-11.0-0.28","111","2022-3-30","13:18:48","0","21","[""White""]","No","Female","1383551","","","","","","","","286","140","30","33","40","1",""
"null","null","clear_screen","canvas-keyboard-response","68","376951","0.0-11.0-1.28","111","2022-3-30","13:18:48","0","21","[""White""]","No","Female","1383551","","","","","","","","286","140","30","33","40","",""
"3673","3","rating","canvas-keyboard-response","69","380638","0.0-11.0-0.29","111","2022-3-30","13:18:48","0","21","[""White""]","No","Female","1383551","","","","","","","","237","113","57","25","33","0",""
"null","null","clear_screen","canvas-keyboard-response","70","380898","0.0-11.0-1.29","111","2022-3-30","13:18:48","0","21","[""White""]","No","Female","1383551","","","","","","","","237","113","57","25","33","",""
"3339","3","rating","canvas-keyboard-response","71","384253","0.0-11.0-0.30","111","2022-3-30","13:18:48","0","21","[""White""]","No","Female","1383551","","","","","","","","191","140","30","17","40","0",""
"null","null","clear_screen","canvas-keyboard-response","72","384515","0.0-11.0-1.30","111","2022-3-30","13:18:48","0","21","[""White""]","No","Female","1383551","","","","","","","","191","140","30","17","40","",""
"3124","4","rating","canvas-keyboard-response","73","387653","0.0-11.0-0.31","111","2022-3-30","13:18:48","0","21","[""White""]","No","Female","1383551","","","","","","","","161","85","57","17","40","1",""
"null","null","clear_screen","canvas-keyboard-response","74","387913","0.0-11.0-1.31","111","2022-3-30","13:18:48","0","21","[""White""]","No","Female","1383551","","","","","","","","161","85","57","17","40","",""
"3359","3","rating","canvas-keyboard-response","75","391286","0.0-11.0-0.32","111","2022-3-30","13:18:48","0","21","[""White""]","No","Female","1383551","","","","","","","","174","113","113","17","33","1",""
"null","null","clear_screen","canvas-keyboard-response","76","391548","0.0-11.0-1.32","111","2022-3-30","13:18:48","0","21","[""White""]","No","Female","1383551","","","","","","","","174","113","113","17","33","",""
"6366","6","rating","canvas-keyboard-response","77","397926","0.0-11.0-0.33","111","2022-3-30","13:18:48","0","21","[""White""]","No","Female","1383551","","","","","","","","126","30","57","17","40","0",""
"null","null","clear_screen","canvas-keyboard-response","78","398185","0.0-11.0-1.33","111","2022-3-30","13:18:48","0","21","[""White""]","No","Female","1383551","","","","","","","","126","30","57","17","40","",""
"5200","3","rating","canvas-keyboard-response","79","403397","0.0-11.0-0.34","111","2022-3-30","13:18:48","0","21","[""White""]","No","Female","1383551","","","","","","","","104","140","113","10","33","1",""
"null","null","clear_screen","canvas-keyboard-response","80","403657","0.0-11.0-1.34","111","2022-3-30","13:18:48","0","21","[""White""]","No","Female","1383551","","","","","","","","104","140","113","10","33","",""
"3855","3","rating","canvas-keyboard-response","81","407525","0.0-11.0-0.35","111","2022-3-30","13:18:48","0","21","[""White""]","No","Female","1383551","","","","","","","","128","30","113","17","40","0",""
"null","null","clear_screen","canvas-keyboard-response","82","407784","0.0-11.0-1.35","111","2022-3-30","13:18:48","0","21","[""White""]","No","Female","1383551","","","","","","","","128","30","113","17","40","",""
"3822","8","rating","canvas-keyboard-response","83","411622","0.0-11.0-0.36","111","2022-3-30","13:18:48","0","21","[""White""]","No","Female","1383551","","","","","","","","201","30","57","25","33","0",""
"null","null","clear_screen","canvas-keyboard-response","84","411881","0.0-11.0-1.36","111","2022-3-30","13:18:48","0","21","[""White""]","No","Female","1383551","","","","","","","","201","30","57","25","33","",""
"2970","7","rating","canvas-keyboard-response","85","414862","0.0-11.0-0.37","111","2022-3-30","13:18:48","0","21","[""White""]","No","Female","1383551","","","","","","","","27","57","140","10","10","1",""
"null","null","clear_screen","canvas-keyboard-response","86","415121","0.0-11.0-1.37","111","2022-3-30","13:18:48","0","21","[""White""]","No","Female","1383551","","","","","","","","27","57","140","10","10","",""
"6097","2","rating","canvas-keyboard-response","87","421228","0.0-11.0-0.38","111","2022-3-30","13:18:48","0","21","[""White""]","No","Female","1383551","","","","","","","","86","113","30","10","40","1",""
"null","null","clear_screen","canvas-keyboard-response","88","421488","0.0-11.0-1.38","111","2022-3-30","13:18:48","0","21","[""White""]","No","Female","1383551","","","","","","","","86","113","30","10","40","",""
"4374","4","rating","canvas-keyboard-response","89","425876","0.0-11.0-0.39","111","2022-3-30","13:18:48","0","21","[""White""]","No","Female","1383551","","","","","","","","187","140","57","17","33","1",""
"null","null","clear_screen","canvas-keyboard-response","90","426135","0.0-11.0-1.39","111","2022-3-30","13:18:48","0","21","[""White""]","No","Female","1383551","","","","","","","","187","140","57","17","33","",""
"3440","7","rating","canvas-keyboard-response","91","429589","0.0-11.0-0.40","111","2022-3-30","13:18:48","0","21","[""White""]","No","Female","1383551","","","","","","","","165","113","140","17","17","0",""
"null","null","clear_screen","canvas-keyboard-response","92","429848","0.0-11.0-1.40","111","2022-3-30","13:18:48","0","21","[""White""]","No","Female","1383551","","","","","","","","165","113","140","17","17","",""
"4195","5","rating","canvas-keyboard-response","93","434053","0.0-11.0-0.41","111","2022-3-30","13:18:48","0","21","[""White""]","No","Female","1383551","","","","","","","","51","85","57","10","17","0",""
"null","null","clear_screen","canvas-keyboard-response","94","434312","0.0-11.0-1.41","111","2022-3-30","13:18:48","0","21","[""White""]","No","Female","1383551","","","","","","","","51","85","57","10","17","",""
"3063","7","rating","canvas-keyboard-response","95","437390","0.0-11.0-0.42","111","2022-3-30","13:18:48","0","21","[""White""]","No","Female","1383551","","","","","","","","79","113","113","10","25","1",""
"null","null","clear_screen","canvas-keyboard-response","96","437652","0.0-11.0-1.42","111","2022-3-30","13:18:48","0","21","[""White""]","No","Female","1383551","","","","","","","","79","113","113","10","25","",""
"3773","5","rating","canvas-keyboard-response","97","441438","0.0-11.0-0.43","111","2022-3-30","13:18:48","0","21","[""White""]","No","Female","1383551","","","","","","","","217","57","140","25","33","0",""
"null","null","clear_screen","canvas-keyboard-response","98","441697","0.0-11.0-1.43","111","2022-3-30","13:18:48","0","21","[""White""]","No","Female","1383551","","","","","","","","217","57","140","25","33","",""
"4728","3","rating","canvas-keyboard-response","99","446437","0.0-11.0-0.44","111","2022-3-30","13:18:48","0","21","[""White""]","No","Female","1383551","","","","","","","","64","85","140","10","33","0",""
"null","null","clear_screen","canvas-keyboard-response","100","446696","0.0-11.0-1.44","111","2022-3-30","13:18:48","0","21","[""White""]","No","Female","1383551","","","","","","","","64","85","140","10","33","",""
"4120","4","rating","canvas-keyboard-response","101","450827","0.0-11.0-0.45","111","2022-3-30","13:18:48","0","21","[""White""]","No","Female","1383551","","","","","","","","173","113","85","17","33","0",""
"null","null","clear_screen","canvas-keyboard-response","102","451084","0.0-11.0-1.45","111","2022-3-30","13:18:48","0","21","[""White""]","No","Female","1383551","","","","","","","","173","113","85","17","33","",""
"3277","1","rating","canvas-keyboard-response","103","454373","0.0-11.0-0.46","111","2022-3-30","13:18:48","0","21","[""White""]","No","Female","1383551","","","","","","","","23","30","113","10","40","1",""
"null","null","clear_screen","canvas-keyboard-response","104","454634","0.0-11.0-1.46","111","2022-3-30","13:18:48","0","21","[""White""]","No","Female","1383551","","","","","","","","23","30","113","10","40","",""
"6219","4","rating","canvas-keyboard-response","105","460870","0.0-11.0-0.47","111","2022-3-30","13:18:48","0","21","[""White""]","No","Female","1383551","","","","","","","","158","85","113","17","33","0",""
"null","null","clear_screen","canvas-keyboard-response","106","461133","0.0-11.0-1.47","111","2022-3-30","13:18:48","0","21","[""White""]","No","Female","1383551","","","","","","","","158","85","113","17","33","",""
"5922","1","rating","canvas-keyboard-response","107","467069","0.0-11.0-0.48","111","2022-3-30","13:18:48","0","21","[""White""]","No","Female","1383551","","","","","","","","14","30","140","10","25","0",""
"null","null","clear_screen","canvas-keyboard-response","108","467327","0.0-11.0-1.48","111","2022-3-30","13:18:48","0","21","[""White""]","No","Female","1383551","","","","","","","","14","30","140","10","25","",""
"2633","8","rating","canvas-keyboard-response","109","469973","0.0-11.0-0.49","111","2022-3-30","13:18:48","0","21","[""White""]","No","Female","1383551","","","","","","","","30","57","85","10","17","0",""
"null","null","clear_screen","canvas-keyboard-response","110","470233","0.0-11.0-1.49","111","2022-3-30","13:18:48","0","21","[""White""]","No","Female","1383551","","","","","","","","30","57","85","10","17","",""
"8439","3","rating","canvas-keyboard-response","111","478685","0.0-11.0-0.50","111","2022-3-30","13:18:48","0","21","[""White""]","No","Female","1383551","","","","","","","","176","113","30","17","40","1",""
"null","null","clear_screen","canvas-keyboard-response","112","478945","0.0-11.0-1.50","111","2022-3-30","13:18:48","0","21","[""White""]","No","Female","1383551","","","","","","","","176","113","30","17","40","",""
"2210","5","rating","canvas-keyboard-response","113","481165","0.0-11.0-0.51","111","2022-3-30","13:18:48","0","21","[""White""]","No","Female","1383551","","","","","","","","271","57","113","33","40","0",""
"null","null","clear_screen","canvas-keyboard-response","114","481424","0.0-11.0-1.51","111","2022-3-30","13:18:48","0","21","[""White""]","No","Female","1383551","","","","","","","","271","57","113","33","40","",""
"4988","1","rating","canvas-keyboard-response","115","486421","0.0-11.0-0.52","111","2022-3-30","13:18:48","0","21","[""White""]","No","Female","1383551","","","","","","","","172","113","57","17","33","0",""
"null","null","clear_screen","canvas-keyboard-response","116","486682","0.0-11.0-1.52","111","2022-3-30","13:18:48","0","21","[""White""]","No","Female","1383551","","","","","","","","172","113","57","17","33","",""
"3724","3","rating","canvas-keyboard-response","117","490421","0.0-11.0-0.53","111","2022-3-30","13:18:48","0","21","[""White""]","No","Female","1383551","","","","","","","","253","140","85","25","40","1",""
"null","null","clear_screen","canvas-keyboard-response","118","490680","0.0-11.0-1.53","111","2022-3-30","13:18:48","0","21","[""White""]","No","Female","1383551","","","","","","","","253","140","85","25","40","",""
"3008","3","rating","canvas-keyboard-response","119","493702","0.0-11.0-0.54","111","2022-3-30","13:18:48","0","21","[""White""]","No","Female","1383551","","","","","","","","123","30","113","17","33","0",""
"null","null","clear_screen","canvas-keyboard-response","120","493960","0.0-11.0-1.54","111","2022-3-30","13:18:48","0","21","[""White""]","No","Female","1383551","","","","","","","","123","30","113","17","33","",""
"5496","9","rating","canvas-keyboard-response","121","499470","0.0-11.0-0.55","111","2022-3-30","13:18:48","0","21","[""White""]","No","Female","1383551","","","","","","","","291","30","57","40","40","1",""
"null","null","clear_screen","canvas-keyboard-response","122","499731","0.0-11.0-1.55","111","2022-3-30","13:18:48","0","21","[""White""]","No","Female","1383551","","","","","","","","291","30","57","40","40","",""
"3211","9","rating","canvas-keyboard-response","123","502957","0.0-11.0-0.56","111","2022-3-30","13:18:48","0","21","[""White""]","No","Female","1383551","","","","","","","","170","113","140","17","25","0",""
"null","null","clear_screen","canvas-keyboard-response","124","503217","0.0-11.0-1.56","111","2022-3-30","13:18:48","0","21","[""White""]","No","Female","1383551","","","","","","","","170","113","140","17","25","",""
"2501","7","rating","canvas-keyboard-response","125","505734","0.0-11.0-0.57","111","2022-3-30","13:18:48","0","21","[""White""]","No","Female","1383551","","","","","","","","136","57","113","17","25","0",""
"null","null","clear_screen","canvas-keyboard-response","126","505993","0.0-11.0-1.57","111","2022-3-30","13:18:48","0","21","[""White""]","No","Female","1383551","","","","","","","","136","57","113","17","25","",""
"2863","4","rating","canvas-keyboard-response","127","508870","0.0-11.0-0.58","111","2022-3-30","13:18:48","0","21","[""White""]","No","Female","1383551","","","","","","","","32","57","140","10","17","1",""
"null","null","clear_screen","canvas-keyboard-response","128","509130","0.0-11.0-1.58","111","2022-3-30","13:18:48","0","21","[""White""]","No","Female","1383551","","","","","","","","32","57","140","10","17","",""
"5571","7","rating","canvas-keyboard-response","129","514718","0.0-11.0-0.59","111","2022-3-30","13:18:48","0","21","[""White""]","No","Female","1383551","","","","","","","","206","30","57","25","40","1",""
"null","null","clear_screen","canvas-keyboard-response","130","514976","0.0-11.0-1.59","111","2022-3-30","13:18:48","0","21","[""White""]","No","Female","1383551","","","","","","","","206","30","57","25","40","",""
"6824","2","rating","canvas-keyboard-response","131","521813","0.0-11.0-0.60","111","2022-3-30","13:18:48","0","21","[""White""]","No","Female","1383551","","","","","","","","177","113","57","17","40","1",""
"null","null","clear_screen","canvas-keyboard-response","132","522075","0.0-11.0-1.60","111","2022-3-30","13:18:48","0","21","[""White""]","No","Female","1383551","","","","","","","","177","113","57","17","40","",""
"2446","4","rating","canvas-keyboard-response","133","524533","0.0-11.0-0.61","111","2022-3-30","13:18:48","0","21","[""White""]","No","Female","1383551","","","","","","","","9","30","140","10","17","0",""
"null","null","clear_screen","canvas-keyboard-response","134","524794","0.0-11.0-1.61","111","2022-3-30","13:18:48","0","21","[""White""]","No","Female","1383551","","","","","","","","9","30","140","10","17","",""
"6436","5","rating","canvas-keyboard-response","135","531247","0.0-11.0-0.62","111","2022-3-30","13:18:48","0","21","[""White""]","No","Female","1383551","","","","","","","","17","30","85","10","33","1",""
"null","null","clear_screen","canvas-keyboard-response","136","531506","0.0-11.0-1.62","111","2022-3-30","13:18:48","0","21","[""White""]","No","Female","1383551","","","","","","","","17","30","85","10","33","",""
"5345","3","rating","canvas-keyboard-response","137","536862","0.0-11.0-0.63","111","2022-3-30","13:18:48","0","21","[""White""]","No","Female","1383551","","","","","","","","203","30","113","25","33","1",""
"null","null","clear_screen","canvas-keyboard-response","138","537120","0.0-11.0-1.63","111","2022-3-30","13:18:48","0","21","[""White""]","No","Female","1383551","","","","","","","","203","30","113","25","33","",""
"4234","8","rating","canvas-keyboard-response","139","541366","0.0-11.0-0.64","111","2022-3-30","13:18:48","0","21","[""White""]","No","Female","1383551","","","","","","","","105","140","140","10","33","1",""
"null","null","clear_screen","canvas-keyboard-response","140","541625","0.0-11.0-1.64","111","2022-3-30","13:18:48","0","21","[""White""]","No","Female","1383551","","","","","","","","105","140","140","10","33","",""
"11127","6","rating","canvas-keyboard-response","141","552765","0.0-11.0-0.65","111","2022-3-30","13:18:48","0","21","[""White""]","No","Female","1383551","","","","","","","","258","30","113","33","33","1",""
"null","null","clear_screen","canvas-keyboard-response","142","553028","0.0-11.0-1.65","111","2022-3-30","13:18:48","0","21","[""White""]","No","Female","1383551","","","","","","","","258","30","113","33","33","",""
"3871","6","rating","canvas-keyboard-response","143","556909","0.0-11.0-0.66","111","2022-3-30","13:18:48","0","21","[""White""]","No","Female","1383551","","","","","","","","254","140","113","25","40","0",""
"null","null","clear_screen","canvas-keyboard-response","144","557168","0.0-11.0-1.66","111","2022-3-30","13:18:48","0","21","[""White""]","No","Female","1383551","","","","","","","","254","140","113","25","40","",""
"4631","7","rating","canvas-keyboard-response","145","561806","0.0-11.0-0.67","111","2022-3-30","13:18:48","0","21","[""White""]","No","Female","1383551","","","","","","","","175","113","140","17","33","0",""
"null","null","clear_screen","canvas-keyboard-response","146","562064","0.0-11.0-1.67","111","2022-3-30","13:18:48","0","21","[""White""]","No","Female","1383551","","","","","","","","175","113","140","17","33","",""
"4369","9","rating","canvas-keyboard-response","147","566445","0.0-11.0-0.68","111","2022-3-30","13:18:48","0","21","[""White""]","No","Female","1383551","","","","","","","","290","140","140","33","40","1",""
"null","null","clear_screen","canvas-keyboard-response","148","566702","0.0-11.0-1.68","111","2022-3-30","13:18:48","0","21","[""White""]","No","Female","1383551","","","","","","","","290","140","140","33","40","",""
"4208","1","rating","canvas-keyboard-response","149","570924","0.0-11.0-0.69","111","2022-3-30","13:18:48","0","21","[""White""]","No","Female","1383551","","","","","","","","66","85","57","10","40","1",""
"null","null","clear_screen","canvas-keyboard-response","150","571184","0.0-11.0-1.69","111","2022-3-30","13:18:48","0","21","[""White""]","No","Female","1383551","","","","","","","","66","85","57","10","40","",""
"2521","5","rating","canvas-keyboard-response","151","573718","0.0-11.0-0.70","111","2022-3-30","13:18:48","0","21","[""White""]","No","Female","1383551","","","","","","","","147","57","140","17","40","0",""
"null","null","clear_screen","canvas-keyboard-response","152","573976","0.0-11.0-1.70","111","2022-3-30","13:18:48","0","21","[""White""]","No","Female","1383551","","","","","","","","147","57","140","17","40","",""
"2175","7","rating","canvas-keyboard-response","153","576165","0.0-11.0-0.71","111","2022-3-30","13:18:48","0","21","[""White""]","No","Female","1383551","","","","","","","","53","85","113","10","17","0",""
"null","null","clear_screen","canvas-keyboard-response","154","576426","0.0-11.0-1.71","111","2022-3-30","13:18:48","0","21","[""White""]","No","Female","1383551","","","","","","","","53","85","113","10","17","",""
"4003","6","rating","canvas-keyboard-response","155","580445","0.0-11.0-0.72","111","2022-3-30","13:18:48","0","21","[""White""]","No","Female","1383551","","","","","","","","145","57","85","17","40","1",""
"null","null","clear_screen","canvas-keyboard-response","156","580708","0.0-11.0-1.72","111","2022-3-30","13:18:48","0","21","[""White""]","No","Female","1383551","","","","","","","","145","57","85","17","40","",""
"2861","7","rating","canvas-keyboard-response","157","583581","0.0-11.0-0.73","111","2022-3-30","13:18:48","0","21","[""White""]","No","Female","1383551","","","","","","","","240","113","140","25","33","0",""
"null","null","clear_screen","canvas-keyboard-response","158","583841","0.0-11.0-1.73","111","2022-3-30","13:18:48","0","21","[""White""]","No","Female","1383551","","","","","","","","240","113","140","25","33","",""
"2831","8","rating","canvas-keyboard-response","159","586685","0.0-11.0-0.74","111","2022-3-30","13:18:48","0","21","[""White""]","No","Female","1383551","","","","","","","","80","113","140","10","25","1",""
"null","null","clear_screen","canvas-keyboard-response","160","586943","0.0-11.0-1.74","111","2022-3-30","13:18:48","0","21","[""White""]","No","Female","1383551","","","","","","","","80","113","140","10","25","",""
"2232","6","rating","canvas-keyboard-response","161","589189","0.0-11.0-0.75","111","2022-3-30","13:18:48","0","21","[""White""]","No","Female","1383551","","","","","","","","262","30","85","33","40","1",""
"null","null","clear_screen","canvas-keyboard-response","162","589448","0.0-11.0-1.75","111","2022-3-30","13:18:48","0","21","[""White""]","No","Female","1383551","","","","","","","","262","30","85","33","40","",""
"1764","6","rating","canvas-keyboard-response","163","591221","0.0-11.0-0.76","111","2022-3-30","13:18:48","0","21","[""White""]","No","Female","1383551","","","","","","","","20","30","30","10","40","1",""
"null","null","clear_screen","canvas-keyboard-response","164","591483","0.0-11.0-1.76","111","2022-3-30","13:18:48","0","21","[""White""]","No","Female","1383551","","","","","","","","20","30","30","10","40","",""
"5832","6","rating","canvas-keyboard-response","165","597326","0.0-11.0-0.77","111","2022-3-30","13:18:48","0","21","[""White""]","No","Female","1383551","","","","","","","","13","30","113","10","25","0",""
"null","null","clear_screen","canvas-keyboard-response","166","597584","0.0-11.0-1.77","111","2022-3-30","13:18:48","0","21","[""White""]","No","Female","1383551","","","","","","","","13","30","113","10","25","",""
"9534","5","rating","canvas-keyboard-response","167","607133","0.0-11.0-0.78","111","2022-3-30","13:18:48","0","21","[""White""]","No","Female","1383551","","","","","","","","60","85","30","10","33","1",""
"null","null","clear_screen","canvas-keyboard-response","168","607392","0.0-11.0-1.78","111","2022-3-30","13:18:48","0","21","[""White""]","No","Female","1383551","","","","","","","","60","85","30","10","33","",""
"1342","6","rating","canvas-keyboard-response","169","608749","0.0-11.0-0.79","111","2022-3-30","13:18:48","0","21","[""White""]","No","Female","1383551","","","","","","","","54","85","140","10","17","1",""
"null","null","clear_screen","canvas-keyboard-response","170","609010","0.0-11.0-1.79","111","2022-3-30","13:18:48","0","21","[""White""]","No","Female","1383551","","","","","","","","54","85","140","10","17","",""
"2038","7","rating","canvas-keyboard-response","171","611061","0.0-11.0-0.80","111","2022-3-30","13:18:48","0","21","[""White""]","No","Female","1383551","","","","","","","","75","113","140","10","17","1",""
"null","null","clear_screen","canvas-keyboard-response","172","611322","0.0-11.0-1.80","111","2022-3-30","13:18:48","0","21","[""White""]","No","Female","1383551","","","","","","","","75","113","140","10","17","",""
"2288","6","rating","canvas-keyboard-response","173","613621","0.0-11.0-0.81","111","2022-3-30","13:18:48","0","21","[""White""]","No","Female","1383551","","","","","","","","90","113","140","10","40","0",""
"null","null","clear_screen","canvas-keyboard-response","174","613884","0.0-11.0-1.81","111","2022-3-30","13:18:48","0","21","[""White""]","No","Female","1383551","","","","","","","","90","113","140","10","40","",""
"4224","5","rating","canvas-keyboard-response","175","618118","0.0-11.0-0.82","111","2022-3-30","13:18:48","0","21","[""White""]","No","Female","1383551","","","","","","","","4","30","140","10","10","0",""
"null","null","clear_screen","canvas-keyboard-response","176","618377","0.0-11.0-1.82","111","2022-3-30","13:18:48","0","21","[""White""]","No","Female","1383551","","","","","","","","4","30","140","10","10","",""
"3348","5","rating","canvas-keyboard-response","177","621741","0.0-11.0-0.83","111","2022-3-30","13:18:48","0","21","[""White""]","No","Female","1383551","","","","","","","","178","113","85","17","40","1",""
"null","null","clear_screen","canvas-keyboard-response","178","622002","0.0-11.0-1.83","111","2022-3-30","13:18:48","0","21","[""White""]","No","Female","1383551","","","","","","","","178","113","85","17","40","",""
"2561","6","rating","canvas-keyboard-response","179","624573","0.0-11.0-0.84","111","2022-3-30","13:18:48","0","21","[""White""]","No","Female","1383551","","","","","","","","267","57","140","33","33","0",""
"null","null","clear_screen","canvas-keyboard-response","180","624835","0.0-11.0-1.84","111","2022-3-30","13:18:48","0","21","[""White""]","No","Female","1383551","","","","","","","","267","57","140","33","33","",""
"2543","6","rating","canvas-keyboard-response","181","627388","0.0-11.0-0.85","111","2022-3-30","13:18:48","0","21","[""White""]","No","Female","1383551","","","","","","","","164","85","140","17","40","1",""
"null","null","clear_screen","canvas-keyboard-response","182","627648","0.0-11.0-1.85","111","2022-3-30","13:18:48","0","21","[""White""]","No","Female","1383551","","","","","","","","164","85","140","17","40","",""
"4924","8","rating","canvas-keyboard-response","183","632581","0.0-11.0-0.86","111","2022-3-30","13:18:48","0","21","[""White""]","No","Female","1383551","","","","","","","","295","57","85","40","40","1",""
"null","null","clear_screen","canvas-keyboard-response","184","632841","0.0-11.0-1.86","111","2022-3-30","13:18:48","0","21","[""White""]","No","Female","1383551","","","","","","","","295","57","85","40","40","",""
"3278","2","rating","canvas-keyboard-response","185","636133","0.0-11.0-0.87","111","2022-3-30","13:18:48","0","21","[""White""]","No","Female","1383551","","","","","","","","259","30","140","33","33","0",""
"null","null","clear_screen","canvas-keyboard-response","186","636394","0.0-11.0-1.87","111","2022-3-30","13:18:48","0","21","[""White""]","No","Female","1383551","","","","","","","","259","30","140","33","33","",""
"8476","6","rating","canvas-keyboard-response","187","644886","0.0-11.0-0.88","111","2022-3-30","13:18:48","0","21","[""White""]","No","Female","1383551","","","","","","","","297","57","140","40","40","0",""
"null","null","clear_screen","canvas-keyboard-response","188","645147","0.0-11.0-1.88","111","2022-3-30","13:18:48","0","21","[""White""]","No","Female","1383551","","","","","","","","297","57","140","40","40","",""
"2939","6","rating","canvas-keyboard-response","189","648101","0.0-11.0-0.89","111","2022-3-30","13:18:48","0","21","[""White""]","No","Female","1383551","","","","","","","","39","57","57","10","33","1",""
"null","null","clear_screen","canvas-keyboard-response","190","648361","0.0-11.0-1.89","111","2022-3-30","13:18:48","0","21","[""White""]","No","Female","1383551","","","","","","","","39","57","57","10","33","",""
"2385","5","rating","canvas-keyboard-response","191","650757","0.0-11.0-0.90","111","2022-3-30","13:18:48","0","21","[""White""]","No","Female","1383551","","","","","","","","3","30","113","10","10","0",""
"null","null","clear_screen","canvas-keyboard-response","192","651020","0.0-11.0-1.90","111","2022-3-30","13:18:48","0","21","[""White""]","No","Female","1383551","","","","","","","","3","30","113","10","10","",""
"4575","5","rating","canvas-keyboard-response","193","655605","0.0-11.0-0.91","111","2022-3-30","13:18:48","0","21","[""White""]","No","Female","1383551","","","","","","","","33","57","30","10","25","0",""
"null","null","clear_screen","canvas-keyboard-response","194","655868","0.0-11.0-1.91","111","2022-3-30","13:18:48","0","21","[""White""]","No","Female","1383551","","","","","","","","33","57","30","10","25","",""
"3775","7","rating","canvas-keyboard-response","195","659653","0.0-11.0-0.92","111","2022-3-30","13:18:48","0","21","[""White""]","No","Female","1383551","","","","","","","","125","30","30","17","40","0",""
"null","null","clear_screen","canvas-keyboard-response","196","659913","0.0-11.0-1.92","111","2022-3-30","13:18:48","0","21","[""White""]","No","Female","1383551","","","","","","","","125","30","30","17","40","",""
"3131","6","rating","canvas-keyboard-response","197","663060","0.0-11.0-0.93","111","2022-3-30","13:18:48","0","21","[""White""]","No","Female","1383551","","","","","","","","49","85","140","10","10","1",""
"null","null","clear_screen","canvas-keyboard-response","198","663323","0.0-11.0-1.93","111","2022-3-30","13:18:48","0","21","[""White""]","No","Female","1383551","","","","","","","","49","85","140","10","10","",""
"2334","6","rating","canvas-keyboard-response","199","665669","0.0-11.0-0.94","111","2022-3-30","13:18:48","0","21","[""White""]","No","Female","1383551","","","","","","","","137","57","140","17","25","0",""
"null","null","clear_screen","canvas-keyboard-response","200","665928","0.0-11.0-1.94","111","2022-3-30","13:18:48","0","21","[""White""]","No","Female","1383551","","","","","","","","137","57","140","17","25","",""
"4610","5","rating","canvas-keyboard-response","201","670550","0.0-11.0-0.95","111","2022-3-30","13:18:48","0","21","[""White""]","No","Female","1383551","","","","","","","","109","140","113","10","40","0",""
"null","null","clear_screen","canvas-keyboard-response","202","670811","0.0-11.0-1.95","111","2022-3-30","13:18:48","0","21","[""White""]","No","Female","1383551","","","","","","","","109","140","113","10","40","",""
"3669","7","rating","canvas-keyboard-response","203","674493","0.0-11.0-0.96","111","2022-3-30","13:18:48","0","21","[""White""]","No","Female","1383551","","","","","","","","268","57","30","33","40","1",""
"null","null","clear_screen","canvas-keyboard-response","204","674753","0.0-11.0-1.96","111","2022-3-30","13:18:48","0","21","[""White""]","No","Female","1383551","","","","","","","","268","57","30","33","40","",""
"1782","6","rating","canvas-keyboard-response","205","676549","0.0-11.0-0.97","111","2022-3-30","13:18:48","0","21","[""White""]","No","Female","1383551","","","","","","","","293","30","113","40","40","1",""
"null","null","clear_screen","canvas-keyboard-response","206","676809","0.0-11.0-1.97","111","2022-3-30","13:18:48","0","21","[""White""]","No","Female","1383551","","","","","","","","293","30","113","40","40","",""
"3609","5","rating","canvas-keyboard-response","207","680429","0.0-11.0-0.98","111","2022-3-30","13:18:48","0","21","[""White""]","No","Female","1383551","","","","","","","","12","30","85","10","25","0",""
"null","null","clear_screen","canvas-keyboard-response","208","680690","0.0-11.0-1.98","111","2022-3-30","13:18:48","0","21","[""White""]","No","Female","1383551","","","","","","","","12","30","85","10","25","",""
"3476","5","rating","canvas-keyboard-response","209","684182","0.0-11.0-0.99","111","2022-3-30","13:18:48","0","21","[""White""]","No","Female","1383551","","","","","","","","8","30","113","10","17","0",""
"null","null","clear_screen","canvas-keyboard-response","210","684441","0.0-11.0-1.99","111","2022-3-30","13:18:48","0","21","[""White""]","No","Female","1383551","","","","","","","","8","30","113","10","17","",""
"3688","5","rating","canvas-keyboard-response","211","688141","0.0-11.0-0.100","111","2022-3-30","13:18:48","0","21","[""White""]","No","Female","1383551","","","","","","","","142","57","140","17","33","0",""
"null","null","clear_screen","canvas-keyboard-response","212","688400","0.0-11.0-1.100","111","2022-3-30","13:18:48","0","21","[""White""]","No","Female","1383551","","","","","","","","142","57","140","17","33","",""
"2456","7","rating","canvas-keyboard-response","213","690869","0.0-11.0-0.101","111","2022-3-30","13:18:48","0","21","[""White""]","No","Female","1383551","","","","","","","","197","30","85","25","25","0",""
"null","null","clear_screen","canvas-keyboard-response","214","691130","0.0-11.0-1.101","111","2022-3-30","13:18:48","0","21","[""White""]","No","Female","1383551","","","","","","","","197","30","85","25","25","",""
"3245","6","rating","canvas-keyboard-response","215","694389","0.0-11.0-0.102","111","2022-3-30","13:18:48","0","21","[""White""]","No","Female","1383551","","","","","","","","118","30","113","17","25","0",""
"null","null","clear_screen","canvas-keyboard-response","216","694651","0.0-11.0-1.102","111","2022-3-30","13:18:48","0","21","[""White""]","No","Female","1383551","","","","","","","","118","30","113","17","25","",""
"5296","6","rating","canvas-keyboard-response","217","699957","0.0-11.0-0.103","111","2022-3-30","13:18:48","0","21","[""White""]","No","Female","1383551","","","","","","","","102","140","57","10","33","1",""
"null","null","clear_screen","canvas-keyboard-response","218","700216","0.0-11.0-1.103","111","2022-3-30","13:18:48","0","21","[""White""]","No","Female","1383551","","","","","","","","102","140","57","10","33","",""
"2449","6","rating","canvas-keyboard-response","219","702678","0.0-11.0-0.104","111","2022-3-30","13:18:48","0","21","[""White""]","No","Female","1383551","","","","","","","","131","57","113","17","17","1",""
"null","null","clear_screen","canvas-keyboard-response","220","702937","0.0-11.0-1.104","111","2022-3-30","13:18:48","0","21","[""White""]","No","Female","1383551","","","","","","","","131","57","113","17","17","",""
"4512","7","rating","canvas-keyboard-response","221","707461","0.0-11.0-0.105","111","2022-3-30","13:18:48","0","21","[""White""]","No","Female","1383551","","","","","","","","116","30","57","17","25","0",""
"null","null","clear_screen","canvas-keyboard-response","222","707720","0.0-11.0-1.105","111","2022-3-30","13:18:48","0","21","[""White""]","No","Female","1383551","","","","","","","","116","30","57","17","25","",""
"4256","6","rating","canvas-keyboard-response","223","711989","0.0-11.0-0.106","111","2022-3-30","13:18:48","0","21","[""White""]","No","Female","1383551","","","","","","","","26","57","113","10","10","1",""
"null","null","clear_screen","canvas-keyboard-response","224","712248","0.0-11.0-1.106","111","2022-3-30","13:18:48","0","21","[""White""]","No","Female","1383551","","","","","","","","26","57","113","10","10","",""
"4887","6","rating","canvas-keyboard-response","225","717150","0.0-11.0-0.107","111","2022-3-30","13:18:48","0","21","[""White""]","No","Female","1383551","","","","","","","","72","113","57","10","17","0",""
"null","null","clear_screen","canvas-keyboard-response","226","717408","0.0-11.0-1.107","111","2022-3-30","13:18:48","0","21","[""White""]","No","Female","1383551","","","","","","","","72","113","57","10","17","",""
"3375","6","rating","canvas-keyboard-response","227","720798","0.0-11.0-0.108","111","2022-3-30","13:18:48","0","21","[""White""]","No","Female","1383551","","","","","","","","257","30","85","33","33","1",""
"null","null","clear_screen","canvas-keyboard-response","228","721059","0.0-11.0-1.108","111","2022-3-30","13:18:48","0","21","[""White""]","No","Female","1383551","","","","","","","","257","30","85","33","33","",""
"5134","7","rating","canvas-keyboard-response","229","726205","0.0-11.0-0.109","111","2022-3-30","13:18:48","0","21","[""White""]","No","Female","1383551","","","","","","","","269","57","57","33","40","1",""
"null","null","clear_screen","canvas-keyboard-response","230","726463","0.0-11.0-1.109","111","2022-3-30","13:18:48","0","21","[""White""]","No","Female","1383551","","","","","","","","269","57","57","33","40","",""
"3315","4","rating","canvas-keyboard-response","231","729789","0.0-11.0-0.110","111","2022-3-30","13:18:48","0","21","[""White""]","No","Female","1383551","","","","","","","","65","85","30","10","40","1",""
"null","null","clear_screen","canvas-keyboard-response","232","730051","0.0-11.0-1.110","111","2022-3-30","13:18:48","0","21","[""White""]","No","Female","1383551","","","","","","","","65","85","30","10","40","",""
"1822","5","rating","canvas-keyboard-response","233","731884","0.0-11.0-0.111","111","2022-3-30","13:18:48","0","21","[""White""]","No","Female","1383551","","","","","","","","113","30","113","17","17","0",""
"null","null","clear_screen","canvas-keyboard-response","234","732147","0.0-11.0-1.111","111","2022-3-30","13:18:48","0","21","[""White""]","No","Female","1383551","","","","","","","","113","30","113","17","17","",""
"3791","3","rating","canvas-keyboard-response","235","735949","0.0-11.0-0.112","111","2022-3-30","13:18:48","0","21","[""White""]","No","Female","1383551","","","","","","","","106","140","30","10","40","0",""
"null","null","clear_screen","canvas-keyboard-response","236","736207","0.0-11.0-1.112","111","2022-3-30","13:18:48","0","21","[""White""]","No","Female","1383551","","","","","","","","106","140","30","10","40","",""
"4027","4","rating","canvas-keyboard-response","237","740245","0.0-11.0-0.113","111","2022-3-30","13:18:48","0","21","[""White""]","No","Female","1383551","","","","","","","","150","85","30","17","25","0",""
"null","null","clear_screen","canvas-keyboard-response","238","740504","0.0-11.0-1.113","111","2022-3-30","13:18:48","0","21","[""White""]","No","Female","1383551","","","","","","","","150","85","30","17","25","",""
"3624","3","rating","canvas-keyboard-response","239","744141","0.0-11.0-0.114","111","2022-3-30","13:18:48","0","21","[""White""]","No","Female","1383551","","","","","","","","71","113","30","10","17","1",""
"null","null","clear_screen","canvas-keyboard-response","240","744401","0.0-11.0-1.114","111","2022-3-30","13:18:48","0","21","[""White""]","No","Female","1383551","","","","","","","","71","113","30","10","17","",""
"6768","3","rating","canvas-keyboard-response","241","751181","0.0-11.0-0.115","111","2022-3-30","13:18:48","0","21","[""White""]","No","Female","1383551","","","","","","","","56","85","57","10","25","0",""
"null","null","clear_screen","canvas-keyboard-response","242","751440","0.0-11.0-1.115","111","2022-3-30","13:18:48","0","21","[""White""]","No","Female","1383551","","","","","","","","56","85","57","10","25","",""
"1700","3","rating","canvas-keyboard-response","243","753156","0.0-11.0-0.116","111","2022-3-30","13:18:48","0","21","[""White""]","No","Female","1383551","","","","","","","","117","30","85","17","25","0",""
"null","null","clear_screen","canvas-keyboard-response","244","753414","0.0-11.0-1.116","111","2022-3-30","13:18:48","0","21","[""White""]","No","Female","1383551","","","","","","","","117","30","85","17","25","",""
"3296","3","rating","canvas-keyboard-response","245","756725","0.0-11.0-0.117","111","2022-3-30","13:18:48","0","21","[""White""]","No","Female","1383551","","","","","","","","41","57","113","10","33","0",""
"null","null","clear_screen","canvas-keyboard-response","246","756986","0.0-11.0-1.117","111","2022-3-30","13:18:48","0","21","[""White""]","No","Female","1383551","","","","","","","","41","57","113","10","33","",""
"2160","4","rating","canvas-keyboard-response","247","759157","0.0-11.0-0.118","111","2022-3-30","13:18:48","0","21","[""White""]","No","Female","1383551","","","","","","","","228","85","113","25","33","1",""
"null","null","clear_screen","canvas-keyboard-response","248","759417","0.0-11.0-1.118","111","2022-3-30","13:18:48","0","21","[""White""]","No","Female","1383551","","","","","","","","228","85","113","25","33","",""
"4111","6","rating","canvas-keyboard-response","249","763541","0.0-11.0-0.119","111","2022-3-30","13:18:48","0","21","[""White""]","No","Female","1383551","","","","","","","","238","113","85","25","33","0",""
"null","null","clear_screen","canvas-keyboard-response","250","763799","0.0-11.0-1.119","111","2022-3-30","13:18:48","0","21","[""White""]","No","Female","1383551","","","","","","","","238","113","85","25","33","",""
"1746","5","rating","canvas-keyboard-response","251","765557","0.0-11.0-0.120","111","2022-3-30","13:18:48","0","21","[""White""]","No","Female","1383551","","","","","","","","274","85","140","33","33","1",""
"null","null","clear_screen","canvas-keyboard-response","252","765815","0.0-11.0-1.120","111","2022-3-30","13:18:48","0","21","[""White""]","No","Female","1383551","","","","","","","","274","85","140","33","33","",""
"5540","5","rating","canvas-keyboard-response","253","771365","0.0-11.0-0.121","111","2022-3-30","13:18:48","0","21","[""White""]","No","Female","1383551","","","","","","","","18","30","113","10","33","1",""
"null","null","clear_screen","canvas-keyboard-response","254","771626","0.0-11.0-1.121","111","2022-3-30","13:18:48","0","21","[""White""]","No","Female","1383551","","","","","","","","18","30","113","10","33","",""
"5005","3","rating","canvas-keyboard-response","255","776645","0.0-11.0-0.122","111","2022-3-30","13:18:48","0","21","[""White""]","No","Female","1383551","","","","","","","","42","57","140","10","33","0",""
"null","null","clear_screen","canvas-keyboard-response","256","776904","0.0-11.0-1.122","111","2022-3-30","13:18:48","0","21","[""White""]","No","Female","1383551","","","","","","","","42","57","140","10","33","",""
"3302","2","rating","canvas-keyboard-response","257","780221","0.0-11.0-0.123","111","2022-3-30","13:18:48","0","21","[""White""]","No","Female","1383551","","","","","","","","55","85","30","10","25","0",""
"null","null","clear_screen","canvas-keyboard-response","258","780481","0.0-11.0-1.123","111","2022-3-30","13:18:48","0","21","[""White""]","No","Female","1383551","","","","","","","","55","85","30","10","25","",""
"8567","3","rating","canvas-keyboard-response","259","789061","0.0-11.0-0.124","111","2022-3-30","13:18:48","0","21","[""White""]","No","Female","1383551","","","","","","","","88","113","85","10","40","0",""
"null","null","clear_screen","canvas-keyboard-response","260","789323","0.0-11.0-1.124","111","2022-3-30","13:18:48","0","21","[""White""]","No","Female","1383551","","","","","","","","88","113","85","10","40","",""
"4219","3","rating","canvas-keyboard-response","261","793558","0.0-11.0-0.125","111","2022-3-30","13:18:48","0","21","[""White""]","No","Female","1383551","","","","","","","","21","30","57","10","40","1",""
"null","null","clear_screen","canvas-keyboard-response","262","793818","0.0-11.0-1.125","111","2022-3-30","13:18:48","0","21","[""White""]","No","Female","1383551","","","","","","","","21","30","57","10","40","",""
"3963","5","rating","canvas-keyboard-response","263","797797","0.0-11.0-0.126","111","2022-3-30","13:18:48","0","21","[""White""]","No","Female","1383551","","","","","","","","67","85","85","10","40","0",""
"null","null","clear_screen","canvas-keyboard-response","264","798058","0.0-11.0-1.126","111","2022-3-30","13:18:48","0","21","[""White""]","No","Female","1383551","","","","","","","","67","85","85","10","40","",""
"2865","6","rating","canvas-keyboard-response","265","800933","0.0-11.0-0.127","111","2022-3-30","13:18:48","0","21","[""White""]","No","Female","1383551","","","","","","","","235","113","140","25","25","1",""
"null","null","clear_screen","canvas-keyboard-response","266","801196","0.0-11.0-1.127","111","2022-3-30","13:18:48","0","21","[""White""]","No","Female","1383551","","","","","","","","235","113","140","25","25","",""
"3195","6","rating","canvas-keyboard-response","267","804405","0.0-11.0-0.128","111","2022-3-30","13:18:48","0","21","[""White""]","No","Female","1383551","","","","","","","","244","113","113","25","40","0",""
"null","null","clear_screen","canvas-keyboard-response","268","804664","0.0-11.0-1.128","111","2022-3-30","13:18:48","0","21","[""White""]","No","Female","1383551","","","","","","","","244","113","113","25","40","",""
"5903","6","rating","canvas-keyboard-response","269","810581","0.0-11.0-0.129","111","2022-3-30","13:18:48","0","21","[""White""]","No","Female","1383551","","","","","","","","89","113","113","10","40","0",""
"null","null","clear_screen","canvas-keyboard-response","270","810844","0.0-11.0-1.129","111","2022-3-30","13:18:48","0","21","[""White""]","No","Female","1383551","","","","","","","","89","113","113","10","40","",""
"2466","7","rating","canvas-keyboard-response","271","813325","0.0-11.0-0.130","111","2022-3-30","13:18:48","0","21","[""White""]","No","Female","1383551","","","","","","","","10","30","30","10","25","1",""
"null","null","clear_screen","canvas-keyboard-response","272","813583","0.0-11.0-1.130","111","2022-3-30","13:18:48","0","21","[""White""]","No","Female","1383551","","","","","","","","10","30","30","10","25","",""
"4543","6","rating","canvas-keyboard-response","273","818142","0.0-11.0-0.131","111","2022-3-30","13:18:48","0","21","[""White""]","No","Female","1383551","","","","","","","","230","85","30","25","40","1",""
"null","null","clear_screen","canvas-keyboard-response","274","818403","0.0-11.0-1.131","111","2022-3-30","13:18:48","0","21","[""White""]","No","Female","1383551","","","","","","","","230","85","30","25","40","",""
"5549","8","rating","canvas-keyboard-response","275","823964","0.0-11.0-0.132","111","2022-3-30","13:18:48","0","21","[""White""]","No","Female","1383551","","","","","","","","36","57","113","10","25","0",""
"null","null","clear_screen","canvas-keyboard-response","276","824228","0.0-11.0-1.132","111","2022-3-30","13:18:48","0","21","[""White""]","No","Female","1383551","","","","","","","","36","57","113","10","25","",""
"3154","7","rating","canvas-keyboard-response","277","827398","0.0-11.0-0.133","111","2022-3-30","13:18:48","0","21","[""White""]","No","Female","1383551","","","","","","","","100","140","140","10","25","1",""
"null","null","clear_screen","canvas-keyboard-response","278","827656","0.0-11.0-1.133","111","2022-3-30","13:18:48","0","21","[""White""]","No","Female","1383551","","","","","","","","100","140","140","10","25","",""
"3507","7","rating","canvas-keyboard-response","279","831173","0.0-11.0-0.134","111","2022-3-30","13:18:48","0","21","[""White""]","No","Female","1383551","","","","","","","","179","113","113","17","40","0",""
"null","null","clear_screen","canvas-keyboard-response","280","831432","0.0-11.0-1.134","111","2022-3-30","13:18:48","0","21","[""White""]","No","Female","1383551","","","","","","","","179","113","113","17","40","",""
"2448","8","rating","canvas-keyboard-response","281","833894","0.0-11.0-0.135","111","2022-3-30","13:18:48","0","21","[""White""]","No","Female","1383551","","","","","","","","227","85","85","25","33","1",""
"null","null","clear_screen","canvas-keyboard-response","282","834155","0.0-11.0-1.135","111","2022-3-30","13:18:48","0","21","[""White""]","No","Female","1383551","","","","","","","","227","85","85","25","33","",""
"2722","9","rating","canvas-keyboard-response","283","836893","0.0-11.0-0.136","111","2022-3-30","13:18:48","0","21","[""White""]","No","Female","1383551","","","","","","","","200","30","30","25","33","0",""
"null","null","clear_screen","canvas-keyboard-response","284","837153","0.0-11.0-1.136","111","2022-3-30","13:18:48","0","21","[""White""]","No","Female","1383551","","","","","","","","200","30","30","25","33","",""
"7993","6","rating","canvas-keyboard-response","285","845157","0.0-11.0-0.137","111","2022-3-30","13:18:48","0","21","[""White""]","No","Female","1383551","","","","","","","","149","85","140","17","17","0",""
"null","null","clear_screen","canvas-keyboard-response","286","845415","0.0-11.0-1.137","111","2022-3-30","13:18:48","0","21","[""White""]","No","Female","1383551","","","","","","","","149","85","140","17","17","",""
"3239","7","rating","canvas-keyboard-response","287","848668","0.0-11.0-0.138","111","2022-3-30","13:18:48","0","21","[""White""]","No","Female","1383551","","","","","","","","2","30","85","10","10","0",""
"null","null","clear_screen","canvas-keyboard-response","288","848927","0.0-11.0-1.138","111","2022-3-30","13:18:48","0","21","[""White""]","No","Female","1383551","","","","","","","","2","30","85","10","10","",""
"2642","6","rating","canvas-keyboard-response","289","851581","0.0-11.0-0.139","111","2022-3-30","13:18:48","0","21","[""White""]","No","Female","1383551","","","","","","","","114","30","140","17","17","1",""
"null","null","clear_screen","canvas-keyboard-response","290","851843","0.0-11.0-1.139","111","2022-3-30","13:18:48","0","21","[""White""]","No","Female","1383551","","","","","","","","114","30","140","17","17","",""
"2385","5","rating","canvas-keyboard-response","291","854237","0.0-11.0-0.140","111","2022-3-30","13:18:48","0","21","[""White""]","No","Female","1383551","","","","","","","","76","113","30","10","25","0",""
"null","null","clear_screen","canvas-keyboard-response","292","854496","0.0-11.0-1.140","111","2022-3-30","13:18:48","0","21","[""White""]","No","Female","1383551","","","","","","","","76","113","30","10","25","",""
"1928","7","rating","canvas-keyboard-response","293","856438","0.0-11.0-0.141","111","2022-3-30","13:18:48","0","21","[""White""]","No","Female","1383551","","","","","","","","283","113","85","33","40","0",""
"null","null","clear_screen","canvas-keyboard-response","294","856697","0.0-11.0-1.141","111","2022-3-30","13:18:48","0","21","[""White""]","No","Female","1383551","","","","","","","","283","113","85","33","40","",""
"1654","7","rating","canvas-keyboard-response","295","858365","0.0-11.0-0.142","111","2022-3-30","13:18:48","0","21","[""White""]","No","Female","1383551","","","","","","","","233","85","113","25","40","1",""
"null","null","clear_screen","canvas-keyboard-response","296","858627","0.0-11.0-1.142","111","2022-3-30","13:18:48","0","21","[""White""]","No","Female","1383551","","","","","","","","233","85","113","25","40","",""
"2573","7","rating","canvas-keyboard-response","297","861213","0.0-11.0-0.143","111","2022-3-30","13:18:48","0","21","[""White""]","No","Female","1383551","","","","","","","","211","57","113","25","25","0",""
"null","null","clear_screen","canvas-keyboard-response","298","861472","0.0-11.0-1.143","111","2022-3-30","13:18:48","0","21","[""White""]","No","Female","1383551","","","","","","","","211","57","113","25","25","",""
"2403","6","rating","canvas-keyboard-response","299","863885","0.0-11.0-0.144","111","2022-3-30","13:18:48","0","21","[""White""]","No","Female","1383551","","","","","","","","143","57","30","17","40","1",""
"null","null","clear_screen","canvas-keyboard-response","300","864142","0.0-11.0-1.144","111","2022-3-30","13:18:48","0","21","[""White""]","No","Female","1383551","","","","","","","","143","57","30","17","40","",""
"3618","6","rating","canvas-keyboard-response","301","867773","0.0-11.0-0.145","111","2022-3-30","13:18:48","0","21","[""White""]","No","Female","1383551","","","","","","","","263","30","113","33","40","0",""
"null","null","clear_screen","canvas-keyboard-response","302","868031","0.0-11.0-1.145","111","2022-3-30","13:18:48","0","21","[""White""]","No","Female","1383551","","","","","","","","263","30","113","33","40","",""
"4579","4","rating","canvas-keyboard-response","303","872621","0.0-11.0-0.146","111","2022-3-30","13:18:48","0","21","[""White""]","No","Female","1383551","","","","","","","","24","30","140","10","40","1",""
"null","null","clear_screen","canvas-keyboard-response","304","872880","0.0-11.0-1.146","111","2022-3-30","13:18:48","0","21","[""White""]","No","Female","1383551","","","","","","","","24","30","140","10","40","",""
"3784","3","rating","canvas-keyboard-response","305","876676","0.0-11.0-0.147","111","2022-3-30","13:18:48","0","21","[""White""]","No","Female","1383551","","","","","","","","107","140","57","10","40","1",""
"null","null","clear_screen","canvas-keyboard-response","306","876934","0.0-11.0-1.147","111","2022-3-30","13:18:48","0","21","[""White""]","No","Female","1383551","","","","","","","","107","140","57","10","40","",""
"2385","3","rating","canvas-keyboard-response","307","879332","0.0-11.0-0.148","111","2022-3-30","13:18:48","0","21","[""White""]","No","Female","1383551","","","","","","","","246","140","30","25","33","1",""
"null","null","clear_screen","canvas-keyboard-response","308","879595","0.0-11.0-1.148","111","2022-3-30","13:18:48","0","21","[""White""]","No","Female","1383551","","","","","","","","246","140","30","25","33","",""
"2884","4","rating","canvas-keyboard-response","309","882492","0.0-11.0-0.149","111","2022-3-30","13:18:48","0","21","[""White""]","No","Female","1383551","","","","","","","","92","140","57","10","17","1",""
"null","null","clear_screen","canvas-keyboard-response","310","882752","0.0-11.0-1.149","111","2022-3-30","13:18:48","0","21","[""White""]","No","Female","1383551","","","","","","","","92","140","57","10","17","",""
"1535","5","rating","canvas-keyboard-response","311","884301","0.0-11.0-0.150","111","2022-3-30","13:18:48","0","21","[""White""]","No","Female","1383551","","","","","","","","242","113","57","25","40","0",""
"null","null","clear_screen","canvas-keyboard-response","312","884562","0.0-11.0-1.150","111","2022-3-30","13:18:48","0","21","[""White""]","No","Female","1383551","","","","","","","","242","113","57","25","40","",""
"1742","4","rating","canvas-keyboard-response","313","886317","0.0-11.0-0.151","111","2022-3-30","13:18:48","0","21","[""White""]","No","Female","1383551","","","","","","","","31","57","113","10","17","0",""
"null","null","clear_screen","canvas-keyboard-response","314","886576","0.0-11.0-1.151","111","2022-3-30","13:18:48","0","21","[""White""]","No","Female","1383551","","","","","","","","31","57","113","10","17","",""
"1264","6","rating","canvas-keyboard-response","315","887855","0.0-11.0-0.152","111","2022-3-30","13:18:48","0","21","[""White""]","No","Female","1383551","","","","","","","","162","85","85","17","40","0",""
"null","null","clear_screen","canvas-keyboard-response","316","888116","0.0-11.0-1.152","111","2022-3-30","13:18:48","0","21","[""White""]","No","Female","1383551","","","","","","","","162","85","85","17","40","",""
"3253","5","rating","canvas-keyboard-response","317","891380","0.0-11.0-0.153","111","2022-3-30","13:18:48","0","21","[""White""]","No","Female","1383551","","","","","","","","68","85","113","10","40","1",""
"null","null","clear_screen","canvas-keyboard-response","318","891645","0.0-11.0-1.153","111","2022-3-30","13:18:48","0","21","[""White""]","No","Female","1383551","","","","","","","","68","85","113","10","40","",""
"7821","5","rating","canvas-keyboard-response","319","899477","0.0-11.0-0.154","111","2022-3-30","13:18:48","0","21","[""White""]","No","Female","1383551","","","","","","","","78","113","85","10","25","0",""
"null","null","clear_screen","canvas-keyboard-response","320","899736","0.0-11.0-1.154","111","2022-3-30","13:18:48","0","21","[""White""]","No","Female","1383551","","","","","","","","78","113","85","10","25","",""
"5110","3","rating","canvas-keyboard-response","321","904853","0.0-11.0-0.155","111","2022-3-30","13:18:48","0","21","[""White""]","No","Female","1383551","","","","","","","","81","113","30","10","33","1",""
"null","null","clear_screen","canvas-keyboard-response","322","905113","0.0-11.0-1.155","111","2022-3-30","13:18:48","0","21","[""White""]","No","Female","1383551","","","","","","","","81","113","30","10","33","",""
"1822","5","rating","canvas-keyboard-response","323","906949","0.0-11.0-0.156","111","2022-3-30","13:18:48","0","21","[""White""]","No","Female","1383551","","","","","","","","156","85","57","17","33","1",""
"null","null","clear_screen","canvas-keyboard-response","324","907207","0.0-11.0-1.156","111","2022-3-30","13:18:48","0","21","[""White""]","No","Female","1383551","","","","","","","","156","85","57","17","33","",""
"2234","3","rating","canvas-keyboard-response","325","909453","0.0-11.0-0.157","111","2022-3-30","13:18:48","0","21","[""White""]","No","Female","1383551","","","","","","","","22","30","85","10","40","1",""
"null","null","clear_screen","canvas-keyboard-response","326","909712","0.0-11.0-1.157","111","2022-3-30","13:18:48","0","21","[""White""]","No","Female","1383551","","","","","","","","22","30","85","10","40","",""
"2249","6","rating","canvas-keyboard-response","327","911972","0.0-11.0-0.158","111","2022-3-30","13:18:48","0","21","[""White""]","No","Female","1383551","","","","","","","","139","57","57","17","33","0",""
"null","null","clear_screen","canvas-keyboard-response","328","912233","0.0-11.0-1.158","111","2022-3-30","13:18:48","0","21","[""White""]","No","Female","1383551","","","","","","","","139","57","57","17","33","",""
"2111","3","rating","canvas-keyboard-response","329","914356","0.0-11.0-0.159","111","2022-3-30","13:18:48","0","21","[""White""]","No","Female","1383551","","","","","","","","186","140","30","17","33","0",""
"null","null","clear_screen","canvas-keyboard-response","330","914615","0.0-11.0-1.159","111","2022-3-30","13:18:48","0","21","[""White""]","No","Female","1383551","","","","","","","","186","140","30","17","33","",""
"1669","3","rating","canvas-keyboard-response","331","916302","0.0-11.0-0.160","111","2022-3-30","13:18:48","0","21","[""White""]","No","Female","1383551","","","","","","","","252","140","57","25","40","0",""
"null","null","clear_screen","canvas-keyboard-response","332","916558","0.0-11.0-1.160","111","2022-3-30","13:18:48","0","21","[""White""]","No","Female","1383551","","","","","","","","252","140","57","25","40","",""
"3130","7","rating","canvas-keyboard-response","333","919700","0.0-11.0-0.161","111","2022-3-30","13:18:48","0","21","[""White""]","No","Female","1383551","","","","","","","","57","85","85","10","25","1",""
"null","null","clear_screen","canvas-keyboard-response","334","919963","0.0-11.0-1.161","111","2022-3-30","13:18:48","0","21","[""White""]","No","Female","1383551","","","","","","","","57","85","85","10","25","",""
"1874","7","rating","canvas-keyboard-response","335","921847","0.0-11.0-0.162","111","2022-3-30","13:18:48","0","21","[""White""]","No","Female","1383551","","","","","","","","25","57","85","10","10","1",""
"null","null","clear_screen","canvas-keyboard-response","336","922107","0.0-11.0-1.162","111","2022-3-30","13:18:48","0","21","[""White""]","No","Female","1383551","","","","","","","","25","57","85","10","10","",""
"2434","6","rating","canvas-keyboard-response","337","924557","0.0-11.0-0.163","111","2022-3-30","13:18:48","0","21","[""White""]","No","Female","1383551","","","","","","","","112","30","85","17","17","1",""
"null","null","clear_screen","canvas-keyboard-response","338","924817","0.0-11.0-1.163","111","2022-3-30","13:18:48","0","21","[""White""]","No","Female","1383551","","","","","","","","112","30","85","17","17","",""
"1768","6","rating","canvas-keyboard-response","339","926597","0.0-11.0-0.164","111","2022-3-30","13:18:48","0","21","[""White""]","No","Female","1383551","","","","","","","","111","30","57","17","17","1",""
"null","null","clear_screen","canvas-keyboard-response","340","926859","0.0-11.0-1.164","111","2022-3-30","13:18:48","0","21","[""White""]","No","Female","1383551","","","","","","","","111","30","57","17","17","",""
"4564","5","rating","canvas-keyboard-response","341","931437","0.0-11.0-0.165","111","2022-3-30","13:18:48","0","21","[""White""]","No","Female","1383551","","","","","","","","193","140","85","17","40","1",""
"null","null","clear_screen","canvas-keyboard-response","342","931696","0.0-11.0-1.165","111","2022-3-30","13:18:48","0","21","[""White""]","No","Female","1383551","","","","","","","","193","140","85","17","40","",""
"2039","2","rating","canvas-keyboard-response","343","933749","0.0-11.0-0.166","111","2022-3-30","13:18:48","0","21","[""White""]","No","Female","1383551","","","","","","","","208","30","113","25","40","1",""
"null","null","clear_screen","canvas-keyboard-response","344","934008","0.0-11.0-1.166","111","2022-3-30","13:18:48","0","21","[""White""]","No","Female","1383551","","","","","","","","208","30","113","25","40","",""
"2632","6","rating","canvas-keyboard-response","345","936654","0.0-11.0-0.167","111","2022-3-30","13:18:48","0","21","[""White""]","No","Female","1383551","","","","","","","","219","57","57","25","40","1",""
"null","null","clear_screen","canvas-keyboard-response","346","936912","0.0-11.0-1.167","111","2022-3-30","13:18:48","0","21","[""White""]","No","Female","1383551","","","","","","","","219","57","57","25","40","",""
"8441","5","rating","canvas-keyboard-response","347","945365","0.0-11.0-0.168","111","2022-3-30","13:18:48","0","21","[""White""]","No","Female","1383551","","","","","","","","226","85","57","25","33","1",""
"null","null","clear_screen","canvas-keyboard-response","348","945625","0.0-11.0-1.168","111","2022-3-30","13:18:48","0","21","[""White""]","No","Female","1383551","","","","","","","","226","85","57","25","33","",""
"3721","2","rating","canvas-keyboard-response","349","949356","0.0-11.0-0.169","111","2022-3-30","13:18:48","0","21","[""White""]","No","Female","1383551","","","","","","","","288","140","85","33","40","1",""
"null","null","clear_screen","canvas-keyboard-response","350","949615","0.0-11.0-1.169","111","2022-3-30","13:18:48","0","21","[""White""]","No","Female","1383551","","","","","","","","288","140","85","33","40","",""
"4642","2","rating","canvas-keyboard-response","351","954269","0.0-11.0-0.170","111","2022-3-30","13:18:48","0","21","[""White""]","No","Female","1383551","","","","","","","","146","57","113","17","40","0",""
"null","null","clear_screen","canvas-keyboard-response","352","954531","0.0-11.0-1.170","111","2022-3-30","13:18:48","0","21","[""White""]","No","Female","1383551","","","","","","","","146","57","113","17","40","",""
"3123","1","rating","canvas-keyboard-response","353","957669","0.0-11.0-0.171","111","2022-3-30","13:18:48","0","21","[""White""]","No","Female","1383551","","","","","","","","281","113","30","33","40","1",""
"null","null","clear_screen","canvas-keyboard-response","354","957929","0.0-11.0-1.171","111","2022-3-30","13:18:48","0","21","[""White""]","No","Female","1383551","","","","","","","","281","113","30","33","40","",""
"4068","1","rating","canvas-keyboard-response","355","962014","0.0-11.0-0.172","111","2022-3-30","13:18:48","0","21","[""White""]","No","Female","1383551","","","","","","","","202","30","85","25","33","1",""
"null","null","clear_screen","canvas-keyboard-response","356","962276","0.0-11.0-1.172","111","2022-3-30","13:18:48","0","21","[""White""]","No","Female","1383551","","","","","","","","202","30","85","25","33","",""
"5625","4","rating","canvas-keyboard-response","357","967917","0.0-11.0-0.173","111","2022-3-30","13:18:48","0","21","[""White""]","No","Female","1383551","","","","","","","","215","57","85","25","33","1",""
"198","4","clear_screen","canvas-keyboard-response","358","968125","0.0-11.0-1.173","111","2022-3-30","13:18:48","0","21","[""White""]","No","Female","1383551","","","","","","","","215","57","85","25","33","",""
"3852","4","rating","canvas-keyboard-response","359","971989","0.0-11.0-0.174","111","2022-3-30","13:18:48","0","21","[""White""]","No","Female","1383551","","","","","","","","133","57","30","17","25","0",""
"null","null","clear_screen","canvas-keyboard-response","360","972249","0.0-11.0-1.174","111","2022-3-30","13:18:48","0","21","[""White""]","No","Female","1383551","","","","","","","","133","57","30","17","25","",""
"1720","4","rating","canvas-keyboard-response","361","973981","0.0-11.0-0.175","111","2022-3-30","13:18:48","0","21","[""White""]","No","Female","1383551","","","","","","","","121","30","57","17","33","1",""
"null","null","clear_screen","canvas-keyboard-response","362","974240","0.0-11.0-1.175","111","2022-3-30","13:18:48","0","21","[""White""]","No","Female","1383551","","","","","","","","121","30","57","17","33","",""
"2777","1","rating","canvas-keyboard-response","363","977028","0.0-11.0-0.176","111","2022-3-30","13:18:48","0","21","[""White""]","No","Female","1383551","","","","","","","","47","57","140","10","40","1",""
"null","null","clear_screen","canvas-keyboard-response","364","977287","0.0-11.0-1.176","111","2022-3-30","13:18:48","0","21","[""White""]","No","Female","1383551","","","","","","","","47","57","140","10","40","",""
"4807","3","rating","canvas-keyboard-response","365","982108","0.0-11.0-0.177","111","2022-3-30","13:18:48","0","21","[""White""]","No","Female","1383551","","","","","","","","299","85","140","40","40","0",""
"null","null","clear_screen","canvas-keyboard-response","366","982368","0.0-11.0-1.177","111","2022-3-30","13:18:48","0","21","[""White""]","No","Female","1383551","","","","","","","","299","85","140","40","40","",""
"2526","6","rating","canvas-keyboard-response","367","984909","0.0-11.0-0.178","111","2022-3-30","13:18:48","0","21","[""White""]","No","Female","1383551","","","","","","","","34","57","57","10","25","1",""
"null","null","clear_screen","canvas-keyboard-response","368","985171","0.0-11.0-1.178","111","2022-3-30","13:18:48","0","21","[""White""]","No","Female","1383551","","","","","","","","34","57","57","10","25","",""
"3372","1","rating","canvas-keyboard-response","369","988557","0.0-11.0-0.179","111","2022-3-30","13:18:48","0","21","[""White""]","No","Female","1383551","","","","","","","","96","140","30","10","25","0",""
"null","null","clear_screen","canvas-keyboard-response","370","988815","0.0-11.0-1.179","111","2022-3-30","13:18:48","0","21","[""White""]","No","Female","1383551","","","","","","","","96","140","30","10","25","",""
"2642","7","rating","canvas-keyboard-response","371","991469","0.0-11.0-0.180","111","2022-3-30","13:18:48","0","21","[""White""]","No","Female","1383551","","","","","","","","276","85","57","33","40","1",""
"null","null","clear_screen","canvas-keyboard-response","372","991730","0.0-11.0-1.180","111","2022-3-30","13:18:48","0","21","[""White""]","No","Female","1383551","","","","","","","","276","85","57","33","40","",""
"1127","7","rating","canvas-keyboard-response","373","992869","0.0-11.0-0.181","111","2022-3-30","13:18:48","0","21","[""White""]","No","Female","1383551","","","","","","","","285","113","140","33","40","1",""
"null","null","clear_screen","canvas-keyboard-response","374","993127","0.0-11.0-1.181","111","2022-3-30","13:18:48","0","21","[""White""]","No","Female","1383551","","","","","","","","285","113","140","33","40","",""
"2824","6","rating","canvas-keyboard-response","375","995966","0.0-11.0-0.182","111","2022-3-30","13:18:48","0","21","[""White""]","No","Female","1383551","","","","","","","","110","140","140","10","40","1",""
"null","null","clear_screen","canvas-keyboard-response","376","996230","0.0-11.0-1.182","111","2022-3-30","13:18:48","0","21","[""White""]","No","Female","1383551","","","","","","","","110","140","140","10","40","",""
"3874","7","rating","canvas-keyboard-response","377","1000117","0.0-11.0-0.183","111","2022-3-30","13:18:48","0","21","[""White""]","No","Female","1383551","","","","","","","","185","140","140","17","25","0",""
"null","null","clear_screen","canvas-keyboard-response","378","1000377","0.0-11.0-1.183","111","2022-3-30","13:18:48","0","21","[""White""]","No","Female","1383551","","","","","","","","185","140","140","17","25","",""
"2103","5","rating","canvas-keyboard-response","379","1002493","0.0-11.0-0.184","111","2022-3-30","13:18:48","0","21","[""White""]","No","Female","1383551","","","","","","","","256","30","57","33","33","0",""
"null","null","clear_screen","canvas-keyboard-response","380","1002753","0.0-11.0-1.184","111","2022-3-30","13:18:48","0","21","[""White""]","No","Female","1383551","","","","","","","","256","30","57","33","33","",""
"2721","4","rating","canvas-keyboard-response","381","1005485","0.0-11.0-0.185","111","2022-3-30","13:18:48","0","21","[""White""]","No","Female","1383551","","","","","","","","234","85","140","25","40","1",""
"null","null","clear_screen","canvas-keyboard-response","382","1005747","0.0-11.0-1.185","111","2022-3-30","13:18:48","0","21","[""White""]","No","Female","1383551","","","","","","","","234","85","140","25","40","",""
"3374","4","rating","canvas-keyboard-response","383","1009133","0.0-11.0-0.186","111","2022-3-30","13:18:48","0","21","[""White""]","No","Female","1383551","","","","","","","","182","140","57","17","25","0",""
"null","null","clear_screen","canvas-keyboard-response","384","1009391","0.0-11.0-1.186","111","2022-3-30","13:18:48","0","21","[""White""]","No","Female","1383551","","","","","","","","182","140","57","17","25","",""
"3897","5","rating","canvas-keyboard-response","385","1013302","0.0-11.0-0.187","111","2022-3-30","13:18:48","0","21","[""White""]","No","Female","1383551","","","","","","","","212","57","140","25","25","0",""
"null","null","clear_screen","canvas-keyboard-response","386","1013564","0.0-11.0-1.187","111","2022-3-30","13:18:48","0","21","[""White""]","No","Female","1383551","","","","","","","","212","57","140","25","25","",""
"2811","5","rating","canvas-keyboard-response","387","1016388","0.0-11.0-0.188","111","2022-3-30","13:18:48","0","21","[""White""]","No","Female","1383551","","","","","","","","184","140","113","17","25","1",""
"null","null","clear_screen","canvas-keyboard-response","388","1016647","0.0-11.0-1.188","111","2022-3-30","13:18:48","0","21","[""White""]","No","Female","1383551","","","","","","","","184","140","113","17","25","",""
"2331","6","rating","canvas-keyboard-response","389","1018989","0.0-11.0-0.189","111","2022-3-30","13:18:48","0","21","[""White""]","No","Female","1383551","","","","","","","","140","57","85","17","33","0",""
"null","null","clear_screen","canvas-keyboard-response","390","1019251","0.0-11.0-1.189","111","2022-3-30","13:18:48","0","21","[""White""]","No","Female","1383551","","","","","","","","140","57","85","17","33","",""
"1096","6","rating","canvas-keyboard-response","391","1020356","0.0-11.0-0.190","111","2022-3-30","13:18:48","0","21","[""White""]","No","Female","1383551","","","","","","","","220","57","85","25","40","1",""
"null","null","clear_screen","canvas-keyboard-response","392","1020616","0.0-11.0-1.190","111","2022-3-30","13:18:48","0","21","[""White""]","No","Female","1383551","","","","","","","","220","57","85","25","40","",""
"1855","4","rating","canvas-keyboard-response","393","1022485","0.0-11.0-0.191","111","2022-3-30","13:18:48","0","21","[""White""]","No","Female","1383551","","","","","","","","241","113","30","25","40","0",""
"null","null","clear_screen","canvas-keyboard-response","394","1022744","0.0-11.0-1.191","111","2022-3-30","13:18:48","0","21","[""White""]","No","Female","1383551","","","","","","","","241","113","30","25","40","",""
"1037","5","rating","canvas-keyboard-response","395","1023797","0.0-11.0-0.192","111","2022-3-30","13:18:48","0","21","[""White""]","No","Female","1383551","","","","","","","","266","57","113","33","33","1",""
"null","null","clear_screen","canvas-keyboard-response","396","1024059","0.0-11.0-1.192","111","2022-3-30","13:18:48","0","21","[""White""]","No","Female","1383551","","","","","","","","266","57","113","33","33","",""
"2374","9","rating","canvas-keyboard-response","397","1026445","0.0-11.0-0.193","111","2022-3-30","13:18:48","0","21","[""White""]","No","Female","1383551","","","","","","","","277","85","85","33","40","0",""
"null","null","clear_screen","canvas-keyboard-response","398","1026706","0.0-11.0-1.193","111","2022-3-30","13:18:48","0","21","[""White""]","No","Female","1383551","","","","","","","","277","85","85","33","40","",""
"2678","1","rating","canvas-keyboard-response","399","1029396","0.0-11.0-0.194","111","2022-3-30","13:18:48","0","21","[""White""]","No","Female","1383551","","","","","","","","251","140","30","25","40","1",""
"null","null","clear_screen","canvas-keyboard-response","400","1029656","0.0-11.0-1.194","111","2022-3-30","13:18:48","0","21","[""White""]","No","Female","1383551","","","","","","","","251","140","30","25","40","",""
"3025","2","rating","canvas-keyboard-response","401","1032694","0.0-11.0-0.195","111","2022-3-30","13:18:48","0","21","[""White""]","No","Female","1383551","","","","","","","","38","57","30","10","33","1",""
"null","null","clear_screen","canvas-keyboard-response","402","1032954","0.0-11.0-1.195","111","2022-3-30","13:18:48","0","21","[""White""]","No","Female","1383551","","","","","","","","38","57","30","10","33","",""
"1770","5","rating","canvas-keyboard-response","403","1034740","0.0-11.0-0.196","111","2022-3-30","13:18:48","0","21","[""White""]","No","Female","1383551","","","","","","","","63","85","113","10","33","0",""
"null","null","clear_screen","canvas-keyboard-response","404","1035001","0.0-11.0-1.196","111","2022-3-30","13:18:48","0","21","[""White""]","No","Female","1383551","","","","","","","","63","85","113","10","33","",""
"3803","4","rating","canvas-keyboard-response","405","1038813","0.0-11.0-0.197","111","2022-3-30","13:18:48","0","21","[""White""]","No","Female","1383551","","","","","","","","58","85","113","10","25","1",""
"null","null","clear_screen","canvas-keyboard-response","406","1039073","0.0-11.0-1.197","111","2022-3-30","13:18:48","0","21","[""White""]","No","Female","1383551","","","","","","","","58","85","113","10","25","",""
"2596","3","rating","canvas-keyboard-response","407","1041684","0.0-11.0-0.198","111","2022-3-30","13:18:48","0","21","[""White""]","No","Female","1383551","","","","","","","","141","57","113","17","33","1",""
"null","null","clear_screen","canvas-keyboard-response","408","1041944","0.0-11.0-1.198","111","2022-3-30","13:18:48","0","21","[""White""]","No","Female","1383551","","","","","","","","141","57","113","17","33","",""
"2842","2","rating","canvas-keyboard-response","409","1044797","0.0-11.0-0.199","111","2022-3-30","13:18:48","0","21","[""White""]","No","Female","1383551","","","","","","","","192","140","57","17","40","1",""
"null","null","clear_screen","canvas-keyboard-response","410","1045057","0.0-11.0-1.199","111","2022-3-30","13:18:48","0","21","[""White""]","No","Female","1383551","","","","","","","","192","140","57","17","40","",""
"1875","5","rating","canvas-keyboard-response","411","1046941","0.0-11.0-0.200","111","2022-3-30","13:18:48","0","21","[""White""]","No","Female","1383551","","","","","","","","99","140","113","10","25","0",""
"null","null","clear_screen","canvas-keyboard-response","412","1047200","0.0-11.0-1.200","111","2022-3-30","13:18:48","0","21","[""White""]","No","Female","1383551","","","","","","","","99","140","113","10","25","",""
"2713","1","rating","canvas-keyboard-response","413","1049925","0.0-11.0-0.201","111","2022-3-30","13:18:48","0","21","[""White""]","No","Female","1383551","","","","","","","","272","57","140","33","40","0",""
"null","null","clear_screen","canvas-keyboard-response","414","1050184","0.0-11.0-1.201","111","2022-3-30","13:18:48","0","21","[""White""]","No","Female","1383551","","","","","","","","272","57","140","33","40","",""
"1730","5","rating","canvas-keyboard-response","415","1051925","0.0-11.0-0.202","111","2022-3-30","13:18:48","0","21","[""White""]","No","Female","1383551","","","","","","","","130","57","85","17","17","1",""
"null","null","clear_screen","canvas-keyboard-response","416","1052186","0.0-11.0-1.202","111","2022-3-30","13:18:48","0","21","[""White""]","No","Female","1383551","","","","","","","","130","57","85","17","17","",""
"2152","2","rating","canvas-keyboard-response","417","1054349","0.0-11.0-0.203","111","2022-3-30","13:18:48","0","21","[""White""]","No","Female","1383551","","","","","","","","37","57","140","10","25","1",""
"null","null","clear_screen","canvas-keyboard-response","418","1054607","0.0-11.0-1.203","111","2022-3-30","13:18:48","0","21","[""White""]","No","Female","1383551","","","","","","","","37","57","140","10","25","",""
"1555","7","rating","canvas-keyboard-response","419","1056172","0.0-11.0-0.204","111","2022-3-30","13:18:48","0","21","[""White""]","No","Female","1383551","","","","","","","","134","57","57","17","25","1",""
"null","null","clear_screen","canvas-keyboard-response","420","1056431","0.0-11.0-1.204","111","2022-3-30","13:18:48","0","21","[""White""]","No","Female","1383551","","","","","","","","134","57","57","17","25","",""
"4239","6","rating","canvas-keyboard-response","421","1060685","0.0-11.0-0.205","111","2022-3-30","13:18:48","0","21","[""White""]","No","Female","1383551","","","","","","","","292","30","85","40","40","0",""
"null","null","clear_screen","canvas-keyboard-response","422","1060948","0.0-11.0-1.205","111","2022-3-30","13:18:48","0","21","[""White""]","No","Female","1383551","","","","","","","","292","30","85","40","40","",""
"1437","8","rating","canvas-keyboard-response","423","1062396","0.0-11.0-0.206","111","2022-3-30","13:18:48","0","21","[""White""]","No","Female","1383551","","","","","","","","250","140","140","25","33","1",""
"null","null","clear_screen","canvas-keyboard-response","424","1062656","0.0-11.0-1.206","111","2022-3-30","13:18:48","0","21","[""White""]","No","Female","1383551","","","","","","","","250","140","140","25","33","",""
"1474","7","rating","canvas-keyboard-response","425","1064140","0.0-11.0-0.207","111","2022-3-30","13:18:48","0","21","[""White""]","No","Female","1383551","","","","","","","","52","85","85","10","17","0",""
"null","null","clear_screen","canvas-keyboard-response","426","1064403","0.0-11.0-1.207","111","2022-3-30","13:18:48","0","21","[""White""]","No","Female","1383551","","","","","","","","52","85","85","10","17","",""
"2304","9","rating","canvas-keyboard-response","427","1066717","0.0-11.0-0.208","111","2022-3-30","13:18:48","0","21","[""White""]","No","Female","1383551","","","","","","","","260","30","30","33","40","0",""
"null","null","clear_screen","canvas-keyboard-response","428","1066977","0.0-11.0-1.208","111","2022-3-30","13:18:48","0","21","[""White""]","No","Female","1383551","","","","","","","","260","30","30","33","40","",""
"4638","5","rating","canvas-keyboard-response","429","1071628","0.0-11.0-0.209","111","2022-3-30","13:18:48","0","21","[""White""]","No","Female","1383551","","","","","","","","46","57","113","10","40","1",""
"null","null","clear_screen","canvas-keyboard-response","430","1071890","0.0-11.0-1.209","111","2022-3-30","13:18:48","0","21","[""White""]","No","Female","1383551","","","","","","","","46","57","113","10","40","",""
"1928","7","rating","canvas-keyboard-response","431","1073829","0.0-11.0-0.210","111","2022-3-30","13:18:48","0","21","[""White""]","No","Female","1383551","","","","","","","","70","113","140","10","10","1",""
"null","null","clear_screen","canvas-keyboard-response","432","1074088","0.0-11.0-1.210","111","2022-3-30","13:18:48","0","21","[""White""]","No","Female","1383551","","","","","","","","70","113","140","10","10","",""
"1393","7","rating","canvas-keyboard-response","433","1075492","0.0-11.0-0.211","111","2022-3-30","13:18:48","0","21","[""White""]","No","Female","1383551","","","","","","","","296","57","113","40","40","1",""
"null","null","clear_screen","canvas-keyboard-response","434","1075754","0.0-11.0-1.211","111","2022-3-30","13:18:48","0","21","[""White""]","No","Female","1383551","","","","","","","","296","57","113","40","40","",""
"659","8","rating","canvas-keyboard-response","435","1076428","0.0-11.0-0.212","111","2022-3-30","13:18:48","0","21","[""White""]","No","Female","1383551","","","","","","","","169","113","113","17","25","0",""
"null","null","clear_screen","canvas-keyboard-response","436","1076688","0.0-11.0-1.212","111","2022-3-30","13:18:48","0","21","[""White""]","No","Female","1383551","","","","","","","","169","113","113","17","25","",""
"2769","6","rating","canvas-keyboard-response","437","1079467","0.0-11.0-0.213","111","2022-3-30","13:18:48","0","21","[""White""]","No","Female","1383551","","","","","","","","247","140","57","25","33","1",""
"null","null","clear_screen","canvas-keyboard-response","438","1079731","0.0-11.0-1.213","111","2022-3-30","13:18:48","0","21","[""White""]","No","Female","1383551","","","","","","","","247","140","57","25","33","",""
"3220","2","rating","canvas-keyboard-response","439","1082965","0.0-11.0-0.214","111","2022-3-30","13:18:48","0","21","[""White""]","No","Female","1383551","","","","","","","","199","30","140","25","25","0",""
"null","null","clear_screen","canvas-keyboard-response","440","1083224","0.0-11.0-1.214","111","2022-3-30","13:18:48","0","21","[""White""]","No","Female","1383551","","","","","","","","199","30","140","25","25","",""
"10480","4","rating","canvas-keyboard-response","441","1093717","0.0-11.0-0.215","111","2022-3-30","13:18:48","0","21","[""White""]","No","Female","1383551","","","","","","","","44","57","57","10","40","1",""
"null","null","clear_screen","canvas-keyboard-response","442","1093978","0.0-11.0-1.215","111","2022-3-30","13:18:48","0","21","[""White""]","No","Female","1383551","","","","","","","","44","57","57","10","40","",""
"5133","2","rating","canvas-keyboard-response","443","1099126","0.0-11.0-0.216","111","2022-3-30","13:18:48","0","21","[""White""]","No","Female","1383551","","","","","","","","264","30","140","33","40","0",""
"null","null","clear_screen","canvas-keyboard-response","444","1099386","0.0-11.0-1.216","111","2022-3-30","13:18:48","0","21","[""White""]","No","Female","1383551","","","","","","","","264","30","140","33","40","",""
"1467","4","rating","canvas-keyboard-response","445","1100870","0.0-11.0-0.217","111","2022-3-30","13:18:48","0","21","[""White""]","No","Female","1383551","","","","","","","","83","113","85","10","33","0",""
"null","null","clear_screen","canvas-keyboard-response","446","1101129","0.0-11.0-1.217","111","2022-3-30","13:18:48","0","21","[""White""]","No","Female","1383551","","","","","","","","83","113","85","10","33","",""
"1841","6","rating","canvas-keyboard-response","447","1102981","0.0-11.0-0.218","111","2022-3-30","13:18:48","0","21","[""White""]","No","Female","1383551","","","","","","","","261","30","57","33","40","0",""
"null","null","clear_screen","canvas-keyboard-response","448","1103244","0.0-11.0-1.218","111","2022-3-30","13:18:48","0","21","[""White""]","No","Female","1383551","","","","","","","","261","30","57","33","40","",""
"2121","4","rating","canvas-keyboard-response","449","1105380","0.0-11.0-0.219","111","2022-3-30","13:18:48","0","21","[""White""]","No","Female","1383551","","","","","","","","69","85","140","10","40","0",""
"null","null","clear_screen","canvas-keyboard-response","450","1105639","0.0-11.0-1.219","111","2022-3-30","13:18:48","0","21","[""White""]","No","Female","1383551","","","","","","","","69","85","140","10","40","",""
"1830","7","rating","canvas-keyboard-response","451","1107484","0.0-11.0-0.220","111","2022-3-30","13:18:48","0","21","[""White""]","No","Female","1383551","","","","","","","","15","30","30","10","33","1",""
"null","null","clear_screen","canvas-keyboard-response","452","1107744","0.0-11.0-1.220","111","2022-3-30","13:18:48","0","21","[""White""]","No","Female","1383551","","","","","","","","15","30","30","10","33","",""
"1890","7","rating","canvas-keyboard-response","453","1109645","0.0-11.0-0.221","111","2022-3-30","13:18:48","0","21","[""White""]","No","Female","1383551","","","","","","","","232","85","85","25","40","1",""
"null","null","clear_screen","canvas-keyboard-response","454","1109907","0.0-11.0-1.221","111","2022-3-30","13:18:48","0","21","[""White""]","No","Female","1383551","","","","","","","","232","85","85","25","40","",""
"3427","4","rating","canvas-keyboard-response","455","1113349","0.0-11.0-0.222","111","2022-3-30","13:18:48","0","21","[""White""]","No","Female","1383551","","","","","","","","171","113","30","17","33","0",""
"null","null","clear_screen","canvas-keyboard-response","456","1113610","0.0-11.0-1.222","111","2022-3-30","13:18:48","0","21","[""White""]","No","Female","1383551","","","","","","","","171","113","30","17","33","",""
"3176","4","rating","canvas-keyboard-response","457","1116797","0.0-11.0-0.223","111","2022-3-30","13:18:48","0","21","[""White""]","No","Female","1383551","","","","","","","","98","140","85","10","25","0",""
"null","null","clear_screen","canvas-keyboard-response","458","1117056","0.0-11.0-1.223","111","2022-3-30","13:18:48","0","21","[""White""]","No","Female","1383551","","","","","","","","98","140","85","10","25","",""
"1887","6","rating","canvas-keyboard-response","459","1118957","0.0-11.0-0.224","111","2022-3-30","13:18:48","0","21","[""White""]","No","Female","1383551","","","","","","","","73","113","85","10","17","1",""
"null","null","clear_screen","canvas-keyboard-response","460","1119216","0.0-11.0-1.224","111","2022-3-30","13:18:48","0","21","[""White""]","No","Female","1383551","","","","","","","","73","113","85","10","17","",""
"1145","5","rating","canvas-keyboard-response","461","1120372","0.0-11.0-0.225","111","2022-3-30","13:18:48","0","21","[""White""]","No","Female","1383551","","","","","","","","188","140","85","17","33","1",""
"null","null","clear_screen","canvas-keyboard-response","462","1120631","0.0-11.0-1.225","111","2022-3-30","13:18:48","0","21","[""White""]","No","Female","1383551","","","","","","","","188","140","85","17","33","",""
