"rt","response","trialType","trial_type","trial_index","time_elapsed","internal_node_id","sub_n","date","time","leftRight","age","race","ethnicity","gender","exp_duration","success","timeout","failed_images","failed_audio","failed_video","stimulus","view_history","trialID","radius_a","radius_b","angle_a","angle_b","lrCond","question_order"
"302639","{""response"":""110""}","enter-sub-number","survey-html-form","0","302649","0.0-0.0","110","2022-3-28","12:49:33","1","19","[""White""]","No","Male","1412522","","","","","","","","","","","","","",""
"","","","fullscreen","1","309151","0.0-1.0","110","2022-3-28","12:49:33","1","19","[""White""]","No","Male","1412522","true","","","","","","","","","","","","",""
"","","","preload","2","309186","0.0-2.0","110","2022-3-28","12:49:33","1","19","[""White""]","No","Male","1412522","true","false","[]","[]","[]","","","","","","","","",""
"7090","0","","html-button-response","3","316278","0.0-3.0","110","2022-3-28","12:49:33","1","19","[""White""]","No","Male","1412522","","","","","","<div style= ""font-size:25px;"" <p> <strong> Welcome to the experiment! </strong><br> <p style=""color:#8B0000; font-size:25px;""><strong> Please do NOT exit full screen until you are done with the experiment. </strong> </p><p style=""font-size:25px;color:#8B0000;""> <strong> The experiment will be canceled and your data will be lost <br> if you try to go back or refresh the page at any point during the experiment.</strong> </p><br><p> <strong> Thanks in advance for your contribution to our research! </strong></p>","","","","","","","",""
"43125","","","instructions","4","359407","0.0-4.0","110","2022-3-28","12:49:33","1","19","[""White""]","No","Male","1412522","","","","","","","[{""page_index"":0,""viewing_time"":19092},{""page_index"":1,""viewing_time"":11937},{""page_index"":2,""viewing_time"":12095}]","","","","","","",""
"null","null","presentPop","canvas-keyboard-response","5","375419","0.0-5.0","110","2022-3-28","12:49:33","1","19","[""White""]","No","Male","1412522","","","","","","","","","","","","","",""
"null","null","clear_screen","canvas-keyboard-response","6","376178","0.0-6.0","110","2022-3-28","12:49:33","1","19","[""White""]","No","Male","1412522","","","","","","","","","","","","","",""
"3155","","","instructions","7","379335","0.0-7.0","110","2022-3-28","12:49:33","1","19","[""White""]","No","Male","1412522","","","","","","","[{""page_index"":0,""viewing_time"":3155}]","","","","","","",""
"null","null","presentPop","canvas-keyboard-response","8","395348","0.0-8.0","110","2022-3-28","12:49:33","1","19","[""White""]","No","Male","1412522","","","","","","","","","","","","","",""
"null","null","clear_screen","canvas-keyboard-response","9","396112","0.0-9.0","110","2022-3-28","12:49:33","1","19","[""White""]","No","Male","1412522","","","","","","","","","","","","","",""
"18373","","","instructions","10","414486","0.0-10.0","110","2022-3-28","12:49:33","1","19","[""White""]","No","Male","1412522","","","","","","","[{""page_index"":0,""viewing_time"":13005},{""page_index"":1,""viewing_time"":5368}]","","","","","","",""
"5956","1","rating","canvas-keyboard-response","11","421454","0.0-11.0-0.0","110","2022-3-28","12:49:33","1","19","[""White""]","No","Male","1412522","","","","","","","","142","57","140","17","33","0",""
"null","null","clear_screen","canvas-keyboard-response","12","421714","0.0-11.0-1.0","110","2022-3-28","12:49:33","1","19","[""White""]","No","Male","1412522","","","","","","","","142","57","140","17","33","",""
"10110","6","rating","canvas-keyboard-response","13","431837","0.0-11.0-0.1","110","2022-3-28","12:49:33","1","19","[""White""]","No","Male","1412522","","","","","","","","210","57","85","25","25","1",""
"null","null","clear_screen","canvas-keyboard-response","14","432098","0.0-11.0-1.1","110","2022-3-28","12:49:33","1","19","[""White""]","No","Male","1412522","","","","","","","","210","57","85","25","25","",""
"4921","2","rating","canvas-keyboard-response","15","437031","0.0-11.0-0.2","110","2022-3-28","12:49:33","1","19","[""White""]","No","Male","1412522","","","","","","","","119","30","140","17","25","1",""
"null","null","clear_screen","canvas-keyboard-response","16","437290","0.0-11.0-1.2","110","2022-3-28","12:49:33","1","19","[""White""]","No","Male","1412522","","","","","","","","119","30","140","17","25","",""
"6756","3","rating","canvas-keyboard-response","17","444062","0.0-11.0-0.3","110","2022-3-28","12:49:33","1","19","[""White""]","No","Male","1412522","","","","","","","","80","113","140","10","25","1",""
"null","null","clear_screen","canvas-keyboard-response","18","444321","0.0-11.0-1.3","110","2022-3-28","12:49:33","1","19","[""White""]","No","Male","1412522","","","","","","","","80","113","140","10","25","",""
"5010","8","rating","canvas-keyboard-response","19","449342","0.0-11.0-0.4","110","2022-3-28","12:49:33","1","19","[""White""]","No","Male","1412522","","","","","","","","300","113","140","40","40","0",""
"null","null","clear_screen","canvas-keyboard-response","20","449603","0.0-11.0-1.4","110","2022-3-28","12:49:33","1","19","[""White""]","No","Male","1412522","","","","","","","","300","113","140","40","40","",""
"3990","1","rating","canvas-keyboard-response","21","453605","0.0-11.0-0.5","110","2022-3-28","12:49:33","1","19","[""White""]","No","Male","1412522","","","","","","","","19","30","140","10","33","1",""
"null","null","clear_screen","canvas-keyboard-response","22","453866","0.0-11.0-1.5","110","2022-3-28","12:49:33","1","19","[""White""]","No","Male","1412522","","","","","","","","19","30","140","10","33","",""
"5038","3","rating","canvas-keyboard-response","23","458917","0.0-11.0-0.6","110","2022-3-28","12:49:33","1","19","[""White""]","No","Male","1412522","","","","","","","","263","30","113","33","40","0",""
"null","null","clear_screen","canvas-keyboard-response","24","459178","0.0-11.0-1.6","110","2022-3-28","12:49:33","1","19","[""White""]","No","Male","1412522","","","","","","","","263","30","113","33","40","",""
"3343","4","rating","canvas-keyboard-response","25","462532","0.0-11.0-0.7","110","2022-3-28","12:49:33","1","19","[""White""]","No","Male","1412522","","","","","","","","243","113","85","25","40","1",""
"null","null","clear_screen","canvas-keyboard-response","26","462788","0.0-11.0-1.7","110","2022-3-28","12:49:33","1","19","[""White""]","No","Male","1412522","","","","","","","","243","113","85","25","40","",""
"4477","6","rating","canvas-keyboard-response","27","467278","0.0-11.0-0.8","110","2022-3-28","12:49:33","1","19","[""White""]","No","Male","1412522","","","","","","","","266","57","113","33","33","1",""
"null","null","clear_screen","canvas-keyboard-response","28","467540","0.0-11.0-1.8","110","2022-3-28","12:49:33","1","19","[""White""]","No","Male","1412522","","","","","","","","266","57","113","33","33","",""
"4720","3","rating","canvas-keyboard-response","29","472270","0.0-11.0-0.9","110","2022-3-28","12:49:33","1","19","[""White""]","No","Male","1412522","","","","","","","","104","140","113","10","33","0",""
"null","null","clear_screen","canvas-keyboard-response","30","472528","0.0-11.0-1.9","110","2022-3-28","12:49:33","1","19","[""White""]","No","Male","1412522","","","","","","","","104","140","113","10","33","",""
"3590","2","rating","canvas-keyboard-response","31","476134","0.0-11.0-0.10","110","2022-3-28","12:49:33","1","19","[""White""]","No","Male","1412522","","","","","","","","178","113","85","17","40","1",""
"null","null","clear_screen","canvas-keyboard-response","32","476394","0.0-11.0-1.10","110","2022-3-28","12:49:33","1","19","[""White""]","No","Male","1412522","","","","","","","","178","113","85","17","40","",""
"2421","1","rating","canvas-keyboard-response","33","478829","0.0-11.0-0.11","110","2022-3-28","12:49:33","1","19","[""White""]","No","Male","1412522","","","","","","","","96","140","30","10","25","0",""
"null","null","clear_screen","canvas-keyboard-response","34","479089","0.0-11.0-1.11","110","2022-3-28","12:49:33","1","19","[""White""]","No","Male","1412522","","","","","","","","96","140","30","10","25","",""
"3637","1","rating","canvas-keyboard-response","35","482741","0.0-11.0-0.12","110","2022-3-28","12:49:33","1","19","[""White""]","No","Male","1412522","","","","","","","","186","140","30","17","33","1",""
"null","null","clear_screen","canvas-keyboard-response","36","483000","0.0-11.0-1.12","110","2022-3-28","12:49:33","1","19","[""White""]","No","Male","1412522","","","","","","","","186","140","30","17","33","",""
"3577","8","rating","canvas-keyboard-response","37","486590","0.0-11.0-0.13","110","2022-3-28","12:49:33","1","19","[""White""]","No","Male","1412522","","","","","","","","116","30","57","17","25","1",""
"null","null","clear_screen","canvas-keyboard-response","38","486853","0.0-11.0-1.13","110","2022-3-28","12:49:33","1","19","[""White""]","No","Male","1412522","","","","","","","","116","30","57","17","25","",""
"3058","8","rating","canvas-keyboard-response","39","489925","0.0-11.0-0.14","110","2022-3-28","12:49:33","1","19","[""White""]","No","Male","1412522","","","","","","","","48","85","113","10","10","1",""
"null","null","clear_screen","canvas-keyboard-response","40","490186","0.0-11.0-1.14","110","2022-3-28","12:49:33","1","19","[""White""]","No","Male","1412522","","","","","","","","48","85","113","10","10","",""
"3377","6","rating","canvas-keyboard-response","41","493574","0.0-11.0-0.15","110","2022-3-28","12:49:33","1","19","[""White""]","No","Male","1412522","","","","","","","","72","113","57","10","17","0",""
"null","null","clear_screen","canvas-keyboard-response","42","493838","0.0-11.0-1.15","110","2022-3-28","12:49:33","1","19","[""White""]","No","Male","1412522","","","","","","","","72","113","57","10","17","",""
"6457","5","rating","canvas-keyboard-response","43","500310","0.0-11.0-0.16","110","2022-3-28","12:49:33","1","19","[""White""]","No","Male","1412522","","","","","","","","195","140","140","17","40","0",""
"null","null","clear_screen","canvas-keyboard-response","44","500570","0.0-11.0-1.16","110","2022-3-28","12:49:33","1","19","[""White""]","No","Male","1412522","","","","","","","","195","140","140","17","40","",""
"4768","6","rating","canvas-keyboard-response","45","505350","0.0-11.0-0.17","110","2022-3-28","12:49:33","1","19","[""White""]","No","Male","1412522","","","","","","","","294","30","140","40","40","1",""
"null","null","clear_screen","canvas-keyboard-response","46","505607","0.0-11.0-1.17","110","2022-3-28","12:49:33","1","19","[""White""]","No","Male","1412522","","","","","","","","294","30","140","40","40","",""
"3922","1","rating","canvas-keyboard-response","47","509541","0.0-11.0-0.18","110","2022-3-28","12:49:33","1","19","[""White""]","No","Male","1412522","","","","","","","","46","57","113","10","40","1",""
"null","null","clear_screen","canvas-keyboard-response","48","509801","0.0-11.0-1.18","110","2022-3-28","12:49:33","1","19","[""White""]","No","Male","1412522","","","","","","","","46","57","113","10","40","",""
"7123","2","rating","canvas-keyboard-response","49","516941","0.0-11.0-0.19","110","2022-3-28","12:49:33","1","19","[""White""]","No","Male","1412522","","","","","","","","194","140","113","17","40","1",""
"null","null","clear_screen","canvas-keyboard-response","50","517202","0.0-11.0-1.19","110","2022-3-28","12:49:33","1","19","[""White""]","No","Male","1412522","","","","","","","","194","140","113","17","40","",""
"3735","5","rating","canvas-keyboard-response","51","520950","0.0-11.0-0.20","110","2022-3-28","12:49:33","1","19","[""White""]","No","Male","1412522","","","","","","","","125","30","30","17","40","0",""
"null","null","clear_screen","canvas-keyboard-response","52","521210","0.0-11.0-1.20","110","2022-3-28","12:49:33","1","19","[""White""]","No","Male","1412522","","","","","","","","125","30","30","17","40","",""
"5209","7","rating","canvas-keyboard-response","53","526429","0.0-11.0-0.21","110","2022-3-28","12:49:33","1","19","[""White""]","No","Male","1412522","","","","","","","","255","140","140","25","40","1",""
"null","null","clear_screen","canvas-keyboard-response","54","526689","0.0-11.0-1.21","110","2022-3-28","12:49:33","1","19","[""White""]","No","Male","1412522","","","","","","","","255","140","140","25","40","",""
"2062","5","rating","canvas-keyboard-response","55","528765","0.0-11.0-0.22","110","2022-3-28","12:49:33","1","19","[""White""]","No","Male","1412522","","","","","","","","254","140","113","25","40","1",""
"null","null","clear_screen","canvas-keyboard-response","56","529027","0.0-11.0-1.22","110","2022-3-28","12:49:33","1","19","[""White""]","No","Male","1412522","","","","","","","","254","140","113","25","40","",""
"4472","2","rating","canvas-keyboard-response","57","533511","0.0-11.0-0.23","110","2022-3-28","12:49:33","1","19","[""White""]","No","Male","1412522","","","","","","","","22","30","85","10","40","1",""
"null","null","clear_screen","canvas-keyboard-response","58","533769","0.0-11.0-1.23","110","2022-3-28","12:49:33","1","19","[""White""]","No","Male","1412522","","","","","","","","22","30","85","10","40","",""
"5282","5","rating","canvas-keyboard-response","59","539061","0.0-11.0-0.24","110","2022-3-28","12:49:33","1","19","[""White""]","No","Male","1412522","","","","","","","","257","30","85","33","33","0",""
"null","null","clear_screen","canvas-keyboard-response","60","539320","0.0-11.0-1.24","110","2022-3-28","12:49:33","1","19","[""White""]","No","Male","1412522","","","","","","","","257","30","85","33","33","",""
"3833","4","rating","canvas-keyboard-response","61","543167","0.0-11.0-0.25","110","2022-3-28","12:49:33","1","19","[""White""]","No","Male","1412522","","","","","","","","282","113","57","33","40","1",""
"null","null","clear_screen","canvas-keyboard-response","62","543429","0.0-11.0-1.25","110","2022-3-28","12:49:33","1","19","[""White""]","No","Male","1412522","","","","","","","","282","113","57","33","40","",""
"3545","2","rating","canvas-keyboard-response","63","546989","0.0-11.0-0.26","110","2022-3-28","12:49:33","1","19","[""White""]","No","Male","1412522","","","","","","","","32","57","140","10","17","0",""
"null","null","clear_screen","canvas-keyboard-response","64","547248","0.0-11.0-1.26","110","2022-3-28","12:49:33","1","19","[""White""]","No","Male","1412522","","","","","","","","32","57","140","10","17","",""
"3002","6","rating","canvas-keyboard-response","65","550261","0.0-11.0-0.27","110","2022-3-28","12:49:33","1","19","[""White""]","No","Male","1412522","","","","","","","","184","140","113","17","25","0",""
"null","null","clear_screen","canvas-keyboard-response","66","550523","0.0-11.0-1.27","110","2022-3-28","12:49:33","1","19","[""White""]","No","Male","1412522","","","","","","","","184","140","113","17","25","",""
"4879","2","rating","canvas-keyboard-response","67","555413","0.0-11.0-0.28","110","2022-3-28","12:49:33","1","19","[""White""]","No","Male","1412522","","","","","","","","66","85","57","10","40","0",""
"null","null","clear_screen","canvas-keyboard-response","68","555673","0.0-11.0-1.28","110","2022-3-28","12:49:33","1","19","[""White""]","No","Male","1412522","","","","","","","","66","85","57","10","40","",""
"1861","1","rating","canvas-keyboard-response","69","557550","0.0-11.0-0.29","110","2022-3-28","12:49:33","1","19","[""White""]","No","Male","1412522","","","","","","","","208","30","113","25","40","0",""
"null","null","clear_screen","canvas-keyboard-response","70","557810","0.0-11.0-1.29","110","2022-3-28","12:49:33","1","19","[""White""]","No","Male","1412522","","","","","","","","208","30","113","25","40","",""
"2262","3","rating","canvas-keyboard-response","71","560086","0.0-11.0-0.30","110","2022-3-28","12:49:33","1","19","[""White""]","No","Male","1412522","","","","","","","","140","57","85","17","33","1",""
"null","null","clear_screen","canvas-keyboard-response","72","560346","0.0-11.0-1.30","110","2022-3-28","12:49:33","1","19","[""White""]","No","Male","1412522","","","","","","","","140","57","85","17","33","",""
"3169","4","rating","canvas-keyboard-response","73","563525","0.0-11.0-0.31","110","2022-3-28","12:49:33","1","19","[""White""]","No","Male","1412522","","","","","","","","90","113","140","10","40","0",""
"null","null","clear_screen","canvas-keyboard-response","74","563784","0.0-11.0-1.31","110","2022-3-28","12:49:33","1","19","[""White""]","No","Male","1412522","","","","","","","","90","113","140","10","40","",""
"2457","7","rating","canvas-keyboard-response","75","566255","0.0-11.0-0.32","110","2022-3-28","12:49:33","1","19","[""White""]","No","Male","1412522","","","","","","","","1","30","57","10","10","1",""
"null","null","clear_screen","canvas-keyboard-response","76","566514","0.0-11.0-1.32","110","2022-3-28","12:49:33","1","19","[""White""]","No","Male","1412522","","","","","","","","1","30","57","10","10","",""
"2903","2","rating","canvas-keyboard-response","77","569430","0.0-11.0-0.33","110","2022-3-28","12:49:33","1","19","[""White""]","No","Male","1412522","","","","","","","","37","57","140","10","25","1",""
"null","null","clear_screen","canvas-keyboard-response","78","569689","0.0-11.0-1.33","110","2022-3-28","12:49:33","1","19","[""White""]","No","Male","1412522","","","","","","","","37","57","140","10","25","",""
"2840","4","rating","canvas-keyboard-response","79","572542","0.0-11.0-0.34","110","2022-3-28","12:49:33","1","19","[""White""]","No","Male","1412522","","","","","","","","279","85","140","33","40","0",""
"null","null","clear_screen","canvas-keyboard-response","80","572800","0.0-11.0-1.34","110","2022-3-28","12:49:33","1","19","[""White""]","No","Male","1412522","","","","","","","","279","85","140","33","40","",""
"1976","2","rating","canvas-keyboard-response","81","574791","0.0-11.0-0.35","110","2022-3-28","12:49:33","1","19","[""White""]","No","Male","1412522","","","","","","","","193","140","85","17","40","0",""
"null","null","clear_screen","canvas-keyboard-response","82","575049","0.0-11.0-1.35","110","2022-3-28","12:49:33","1","19","[""White""]","No","Male","1412522","","","","","","","","193","140","85","17","40","",""
"2525","3","rating","canvas-keyboard-response","83","577589","0.0-11.0-0.36","110","2022-3-28","12:49:33","1","19","[""White""]","No","Male","1412522","","","","","","","","281","113","30","33","40","1",""
"null","null","clear_screen","canvas-keyboard-response","84","577847","0.0-11.0-1.36","110","2022-3-28","12:49:33","1","19","[""White""]","No","Male","1412522","","","","","","","","281","113","30","33","40","",""
"3887","7","rating","canvas-keyboard-response","85","581750","0.0-11.0-0.37","110","2022-3-28","12:49:33","1","19","[""White""]","No","Male","1412522","","","","","","","","170","113","140","17","25","1",""
"null","null","clear_screen","canvas-keyboard-response","86","582010","0.0-11.0-1.37","110","2022-3-28","12:49:33","1","19","[""White""]","No","Male","1412522","","","","","","","","170","113","140","17","25","",""
"7101","2","rating","canvas-keyboard-response","87","589126","0.0-11.0-0.38","110","2022-3-28","12:49:33","1","19","[""White""]","No","Male","1412522","","","","","","","","107","140","57","10","40","0",""
"null","null","clear_screen","canvas-keyboard-response","88","589383","0.0-11.0-1.38","110","2022-3-28","12:49:33","1","19","[""White""]","No","Male","1412522","","","","","","","","107","140","57","10","40","",""
"2416","1","rating","canvas-keyboard-response","89","591813","0.0-11.0-0.39","110","2022-3-28","12:49:33","1","19","[""White""]","No","Male","1412522","","","","","","","","89","113","113","10","40","0",""
"null","null","clear_screen","canvas-keyboard-response","90","592073","0.0-11.0-1.39","110","2022-3-28","12:49:33","1","19","[""White""]","No","Male","1412522","","","","","","","","89","113","113","10","40","",""
"1937","1","rating","canvas-keyboard-response","91","594022","0.0-11.0-0.40","110","2022-3-28","12:49:33","1","19","[""White""]","No","Male","1412522","","","","","","","","83","113","85","10","33","0",""
"null","null","clear_screen","canvas-keyboard-response","92","594280","0.0-11.0-1.40","110","2022-3-28","12:49:33","1","19","[""White""]","No","Male","1412522","","","","","","","","83","113","85","10","33","",""
"2338","9","rating","canvas-keyboard-response","93","596629","0.0-11.0-0.41","110","2022-3-28","12:49:33","1","19","[""White""]","No","Male","1412522","","","","","","","","196","30","57","25","25","0",""
"null","null","clear_screen","canvas-keyboard-response","94","596887","0.0-11.0-1.41","110","2022-3-28","12:49:33","1","19","[""White""]","No","Male","1412522","","","","","","","","196","30","57","25","25","",""
"2631","2","rating","canvas-keyboard-response","95","599525","0.0-11.0-0.42","110","2022-3-28","12:49:33","1","19","[""White""]","No","Male","1412522","","","","","","","","123","30","113","17","33","1",""
"null","null","clear_screen","canvas-keyboard-response","96","599786","0.0-11.0-1.42","110","2022-3-28","12:49:33","1","19","[""White""]","No","Male","1412522","","","","","","","","123","30","113","17","33","",""
"4909","2","rating","canvas-keyboard-response","97","604701","0.0-11.0-0.43","110","2022-3-28","12:49:33","1","19","[""White""]","No","Male","1412522","","","","","","","","91","140","30","10","17","0",""
"null","null","clear_screen","canvas-keyboard-response","98","604961","0.0-11.0-1.43","110","2022-3-28","12:49:33","1","19","[""White""]","No","Male","1412522","","","","","","","","91","140","30","10","17","",""
"2481","6","rating","canvas-keyboard-response","99","607454","0.0-11.0-0.44","110","2022-3-28","12:49:33","1","19","[""White""]","No","Male","1412522","","","","","","","","268","57","30","33","40","0",""
"null","null","clear_screen","canvas-keyboard-response","100","607714","0.0-11.0-1.44","110","2022-3-28","12:49:33","1","19","[""White""]","No","Male","1412522","","","","","","","","268","57","30","33","40","",""
"6305","7","rating","canvas-keyboard-response","101","614030","0.0-11.0-0.45","110","2022-3-28","12:49:33","1","19","[""White""]","No","Male","1412522","","","","","","","","93","140","85","10","17","1",""
"null","null","clear_screen","canvas-keyboard-response","102","614289","0.0-11.0-1.45","110","2022-3-28","12:49:33","1","19","[""White""]","No","Male","1412522","","","","","","","","93","140","85","10","17","",""
"2872","6","rating","canvas-keyboard-response","103","617175","0.0-11.0-0.46","110","2022-3-28","12:49:33","1","19","[""White""]","No","Male","1412522","","","","","","","","233","85","113","25","40","1",""
"null","null","clear_screen","canvas-keyboard-response","104","617435","0.0-11.0-1.46","110","2022-3-28","12:49:33","1","19","[""White""]","No","Male","1412522","","","","","","","","233","85","113","25","40","",""
"2449","8","rating","canvas-keyboard-response","105","619893","0.0-11.0-0.47","110","2022-3-28","12:49:33","1","19","[""White""]","No","Male","1412522","","","","","","","","273","85","113","33","33","0",""
"null","null","clear_screen","canvas-keyboard-response","106","620154","0.0-11.0-1.47","110","2022-3-28","12:49:33","1","19","[""White""]","No","Male","1412522","","","","","","","","273","85","113","33","33","",""
"2956","2","rating","canvas-keyboard-response","107","623124","0.0-11.0-0.48","110","2022-3-28","12:49:33","1","19","[""White""]","No","Male","1412522","","","","","","","","129","30","140","17","40","1",""
"null","null","clear_screen","canvas-keyboard-response","108","623384","0.0-11.0-1.48","110","2022-3-28","12:49:33","1","19","[""White""]","No","Male","1412522","","","","","","","","129","30","140","17","40","",""
"3226","3","rating","canvas-keyboard-response","109","626622","0.0-11.0-0.49","110","2022-3-28","12:49:33","1","19","[""White""]","No","Male","1412522","","","","","","","","161","85","57","17","40","1",""
"null","null","clear_screen","canvas-keyboard-response","110","626882","0.0-11.0-1.49","110","2022-3-28","12:49:33","1","19","[""White""]","No","Male","1412522","","","","","","","","161","85","57","17","40","",""
"2844","6","rating","canvas-keyboard-response","111","629740","0.0-11.0-0.50","110","2022-3-28","12:49:33","1","19","[""White""]","No","Male","1412522","","","","","","","","44","57","57","10","40","1",""
"null","null","clear_screen","canvas-keyboard-response","112","629999","0.0-11.0-1.50","110","2022-3-28","12:49:33","1","19","[""White""]","No","Male","1412522","","","","","","","","44","57","57","10","40","",""
"2120","1","rating","canvas-keyboard-response","113","632134","0.0-11.0-0.51","110","2022-3-28","12:49:33","1","19","[""White""]","No","Male","1412522","","","","","","","","23","30","113","10","40","0",""
"null","null","clear_screen","canvas-keyboard-response","114","632393","0.0-11.0-1.51","110","2022-3-28","12:49:33","1","19","[""White""]","No","Male","1412522","","","","","","","","23","30","113","10","40","",""
"3773","7","rating","canvas-keyboard-response","115","636184","0.0-11.0-0.52","110","2022-3-28","12:49:33","1","19","[""White""]","No","Male","1412522","","","","","","","","157","85","85","17","33","1",""
"null","null","clear_screen","canvas-keyboard-response","116","636444","0.0-11.0-1.52","110","2022-3-28","12:49:33","1","19","[""White""]","No","Male","1412522","","","","","","","","157","85","85","17","33","",""
"2068","1","rating","canvas-keyboard-response","117","638526","0.0-11.0-0.53","110","2022-3-28","12:49:33","1","19","[""White""]","No","Male","1412522","","","","","","","","106","140","30","10","40","1",""
"null","null","clear_screen","canvas-keyboard-response","118","638786","0.0-11.0-1.53","110","2022-3-28","12:49:33","1","19","[""White""]","No","Male","1412522","","","","","","","","106","140","30","10","40","",""
"2814","3","rating","canvas-keyboard-response","119","641614","0.0-11.0-0.54","110","2022-3-28","12:49:33","1","19","[""White""]","No","Male","1412522","","","","","","","","50","85","30","10","17","1",""
"null","null","clear_screen","canvas-keyboard-response","120","641873","0.0-11.0-1.54","110","2022-3-28","12:49:33","1","19","[""White""]","No","Male","1412522","","","","","","","","50","85","30","10","17","",""
"2438","8","rating","canvas-keyboard-response","121","644325","0.0-11.0-0.55","110","2022-3-28","12:49:33","1","19","[""White""]","No","Male","1412522","","","","","","","","132","57","140","17","17","0",""
"null","null","clear_screen","canvas-keyboard-response","122","644586","0.0-11.0-1.55","110","2022-3-28","12:49:33","1","19","[""White""]","No","Male","1412522","","","","","","","","132","57","140","17","17","",""
"6454","3","rating","canvas-keyboard-response","123","651053","0.0-11.0-0.56","110","2022-3-28","12:49:33","1","19","[""White""]","No","Male","1412522","","","","","","","","187","140","57","17","33","1",""
"null","null","clear_screen","canvas-keyboard-response","124","651316","0.0-11.0-1.56","110","2022-3-28","12:49:33","1","19","[""White""]","No","Male","1412522","","","","","","","","187","140","57","17","33","",""
"5330","5","rating","canvas-keyboard-response","125","656653","0.0-11.0-0.57","110","2022-3-28","12:49:33","1","19","[""White""]","No","Male","1412522","","","","","","","","175","113","140","17","33","0",""
"null","null","clear_screen","canvas-keyboard-response","126","656911","0.0-11.0-1.57","110","2022-3-28","12:49:33","1","19","[""White""]","No","Male","1412522","","","","","","","","175","113","140","17","33","",""
"4721","6","rating","canvas-keyboard-response","127","661646","0.0-11.0-0.58","110","2022-3-28","12:49:33","1","19","[""White""]","No","Male","1412522","","","","","","","","136","57","113","17","25","1",""
"null","null","clear_screen","canvas-keyboard-response","128","661904","0.0-11.0-1.58","110","2022-3-28","12:49:33","1","19","[""White""]","No","Male","1412522","","","","","","","","136","57","113","17","25","",""
"3311","9","rating","canvas-keyboard-response","129","665229","0.0-11.0-0.59","110","2022-3-28","12:49:33","1","19","[""White""]","No","Male","1412522","","","","","","","","185","140","140","17","25","1",""
"null","null","clear_screen","canvas-keyboard-response","130","665489","0.0-11.0-1.59","110","2022-3-28","12:49:33","1","19","[""White""]","No","Male","1412522","","","","","","","","185","140","140","17","25","",""
"2730","8","rating","canvas-keyboard-response","131","668231","0.0-11.0-0.60","110","2022-3-28","12:49:33","1","19","[""White""]","No","Male","1412522","","","","","","","","223","85","113","25","25","1",""
"null","null","clear_screen","canvas-keyboard-response","132","668489","0.0-11.0-1.60","110","2022-3-28","12:49:33","1","19","[""White""]","No","Male","1412522","","","","","","","","223","85","113","25","25","",""
"2702","6","rating","canvas-keyboard-response","133","671205","0.0-11.0-0.61","110","2022-3-28","12:49:33","1","19","[""White""]","No","Male","1412522","","","","","","","","145","57","85","17","40","0",""
"null","null","clear_screen","canvas-keyboard-response","134","671463","0.0-11.0-1.61","110","2022-3-28","12:49:33","1","19","[""White""]","No","Male","1412522","","","","","","","","145","57","85","17","40","",""
"5124","1","rating","canvas-keyboard-response","135","676599","0.0-11.0-0.62","110","2022-3-28","12:49:33","1","19","[""White""]","No","Male","1412522","","","","","","","","98","140","85","10","25","1",""
"null","null","clear_screen","canvas-keyboard-response","136","676858","0.0-11.0-1.62","110","2022-3-28","12:49:33","1","19","[""White""]","No","Male","1412522","","","","","","","","98","140","85","10","25","",""
"2645","3","rating","canvas-keyboard-response","137","679518","0.0-11.0-0.63","110","2022-3-28","12:49:33","1","19","[""White""]","No","Male","1412522","","","","","","","","163","85","113","17","40","1",""
"null","null","clear_screen","canvas-keyboard-response","138","679778","0.0-11.0-1.63","110","2022-3-28","12:49:33","1","19","[""White""]","No","Male","1412522","","","","","","","","163","85","113","17","40","",""
"4550","3","rating","canvas-keyboard-response","139","684342","0.0-11.0-0.64","110","2022-3-28","12:49:33","1","19","[""White""]","No","Male","1412522","","","","","","","","247","140","57","25","33","1",""
"null","null","clear_screen","canvas-keyboard-response","140","684602","0.0-11.0-1.64","110","2022-3-28","12:49:33","1","19","[""White""]","No","Male","1412522","","","","","","","","247","140","57","25","33","",""
"3990","1","rating","canvas-keyboard-response","141","688606","0.0-11.0-0.65","110","2022-3-28","12:49:33","1","19","[""White""]","No","Male","1412522","","","","","","","","176","113","30","17","40","0",""
"null","null","clear_screen","canvas-keyboard-response","142","688863","0.0-11.0-1.65","110","2022-3-28","12:49:33","1","19","[""White""]","No","Male","1412522","","","","","","","","176","113","30","17","40","",""
"4077","5","rating","canvas-keyboard-response","143","692950","0.0-11.0-0.66","110","2022-3-28","12:49:33","1","19","[""White""]","No","Male","1412522","","","","","","","","212","57","140","25","25","1",""
"null","null","clear_screen","canvas-keyboard-response","144","693213","0.0-11.0-1.66","110","2022-3-28","12:49:33","1","19","[""White""]","No","Male","1412522","","","","","","","","212","57","140","25","25","",""
"5137","4","rating","canvas-keyboard-response","145","698366","0.0-11.0-0.67","110","2022-3-28","12:49:33","1","19","[""White""]","No","Male","1412522","","","","","","","","122","30","85","17","33","1",""
"null","null","clear_screen","canvas-keyboard-response","146","698624","0.0-11.0-1.67","110","2022-3-28","12:49:33","1","19","[""White""]","No","Male","1412522","","","","","","","","122","30","85","17","33","",""
"3511","6","rating","canvas-keyboard-response","147","702149","0.0-11.0-0.68","110","2022-3-28","12:49:33","1","19","[""White""]","No","Male","1412522","","","","","","","","271","57","113","33","40","1",""
"null","null","clear_screen","canvas-keyboard-response","148","702410","0.0-11.0-1.68","110","2022-3-28","12:49:33","1","19","[""White""]","No","Male","1412522","","","","","","","","271","57","113","33","40","",""
"3303","6","rating","canvas-keyboard-response","149","705727","0.0-11.0-0.69","110","2022-3-28","12:49:33","1","19","[""White""]","No","Male","1412522","","","","","","","","162","85","85","17","40","0",""
"null","null","clear_screen","canvas-keyboard-response","150","705987","0.0-11.0-1.69","110","2022-3-28","12:49:33","1","19","[""White""]","No","Male","1412522","","","","","","","","162","85","85","17","40","",""
"3450","7","rating","canvas-keyboard-response","151","709453","0.0-11.0-0.70","110","2022-3-28","12:49:33","1","19","[""White""]","No","Male","1412522","","","","","","","","15","30","30","10","33","1",""
"null","null","clear_screen","canvas-keyboard-response","152","709714","0.0-11.0-1.70","110","2022-3-28","12:49:33","1","19","[""White""]","No","Male","1412522","","","","","","","","15","30","30","10","33","",""
"4678","9","rating","canvas-keyboard-response","153","714406","0.0-11.0-0.71","110","2022-3-28","12:49:33","1","19","[""White""]","No","Male","1412522","","","","","","","","239","113","113","25","33","1",""
"null","null","clear_screen","canvas-keyboard-response","154","714666","0.0-11.0-1.71","110","2022-3-28","12:49:33","1","19","[""White""]","No","Male","1412522","","","","","","","","239","113","113","25","33","",""
"3037","1","rating","canvas-keyboard-response","155","717718","0.0-11.0-0.72","110","2022-3-28","12:49:33","1","19","[""White""]","No","Male","1412522","","","","","","","","24","30","140","10","40","1",""
"null","null","clear_screen","canvas-keyboard-response","156","717978","0.0-11.0-1.72","110","2022-3-28","12:49:33","1","19","[""White""]","No","Male","1412522","","","","","","","","24","30","140","10","40","",""
"3224","3","rating","canvas-keyboard-response","157","721213","0.0-11.0-0.73","110","2022-3-28","12:49:33","1","19","[""White""]","No","Male","1412522","","","","","","","","181","140","30","17","25","1",""
"null","null","clear_screen","canvas-keyboard-response","158","721475","0.0-11.0-1.73","110","2022-3-28","12:49:33","1","19","[""White""]","No","Male","1412522","","","","","","","","181","140","30","17","25","",""
"3054","3","rating","canvas-keyboard-response","159","724542","0.0-11.0-0.74","110","2022-3-28","12:49:33","1","19","[""White""]","No","Male","1412522","","","","","","","","182","140","57","17","25","0",""
"null","null","clear_screen","canvas-keyboard-response","160","724800","0.0-11.0-1.74","110","2022-3-28","12:49:33","1","19","[""White""]","No","Male","1412522","","","","","","","","182","140","57","17","25","",""
"1945","2","rating","canvas-keyboard-response","161","726758","0.0-11.0-0.75","110","2022-3-28","12:49:33","1","19","[""White""]","No","Male","1412522","","","","","","","","87","113","57","10","40","1",""
"null","null","clear_screen","canvas-keyboard-response","162","727018","0.0-11.0-1.75","110","2022-3-28","12:49:33","1","19","[""White""]","No","Male","1412522","","","","","","","","87","113","57","10","40","",""
"2905","9","rating","canvas-keyboard-response","163","729933","0.0-11.0-0.76","110","2022-3-28","12:49:33","1","19","[""White""]","No","Male","1412522","","","","","","","","74","113","113","10","17","1",""
"null","null","clear_screen","canvas-keyboard-response","164","730194","0.0-11.0-1.76","110","2022-3-28","12:49:33","1","19","[""White""]","No","Male","1412522","","","","","","","","74","113","113","10","17","",""
"2294","8","rating","canvas-keyboard-response","165","732502","0.0-11.0-0.77","110","2022-3-28","12:49:33","1","19","[""White""]","No","Male","1412522","","","","","","","","94","140","113","10","17","1",""
"null","null","clear_screen","canvas-keyboard-response","166","732762","0.0-11.0-1.77","110","2022-3-28","12:49:33","1","19","[""White""]","No","Male","1412522","","","","","","","","94","140","113","10","17","",""
"6337","6","rating","canvas-keyboard-response","167","739109","0.0-11.0-0.78","110","2022-3-28","12:49:33","1","19","[""White""]","No","Male","1412522","","","","","","","","259","30","140","33","33","0",""
"null","null","clear_screen","canvas-keyboard-response","168","739370","0.0-11.0-1.78","110","2022-3-28","12:49:33","1","19","[""White""]","No","Male","1412522","","","","","","","","259","30","140","33","33","",""
"2057","7","rating","canvas-keyboard-response","169","741437","0.0-11.0-0.79","110","2022-3-28","12:49:33","1","19","[""White""]","No","Male","1412522","","","","","","","","58","85","113","10","25","1",""
"null","null","clear_screen","canvas-keyboard-response","170","741697","0.0-11.0-1.79","110","2022-3-28","12:49:33","1","19","[""White""]","No","Male","1412522","","","","","","","","58","85","113","10","25","",""
"2608","7","rating","canvas-keyboard-response","171","744317","0.0-11.0-0.80","110","2022-3-28","12:49:33","1","19","[""White""]","No","Male","1412522","","","","","","","","144","57","57","17","40","1",""
"null","null","clear_screen","canvas-keyboard-response","172","744577","0.0-11.0-1.80","110","2022-3-28","12:49:33","1","19","[""White""]","No","Male","1412522","","","","","","","","144","57","57","17","40","",""
"2057","7","rating","canvas-keyboard-response","173","746645","0.0-11.0-0.81","110","2022-3-28","12:49:33","1","19","[""White""]","No","Male","1412522","","","","","","","","10","30","30","10","25","0",""
"null","null","clear_screen","canvas-keyboard-response","174","746904","0.0-11.0-1.81","110","2022-3-28","12:49:33","1","19","[""White""]","No","Male","1412522","","","","","","","","10","30","30","10","25","",""
"4482","6","rating","canvas-keyboard-response","175","751397","0.0-11.0-0.82","110","2022-3-28","12:49:33","1","19","[""White""]","No","Male","1412522","","","","","","","","275","85","30","33","40","1",""
"null","null","clear_screen","canvas-keyboard-response","176","751657","0.0-11.0-1.82","110","2022-3-28","12:49:33","1","19","[""White""]","No","Male","1412522","","","","","","","","275","85","30","33","40","",""
"1886","8","rating","canvas-keyboard-response","177","753558","0.0-11.0-0.83","110","2022-3-28","12:49:33","1","19","[""White""]","No","Male","1412522","","","","","","","","62","85","85","10","33","0",""
"null","null","clear_screen","canvas-keyboard-response","178","753817","0.0-11.0-1.83","110","2022-3-28","12:49:33","1","19","[""White""]","No","Male","1412522","","","","","","","","62","85","85","10","33","",""
"3652","6","rating","canvas-keyboard-response","179","757492","0.0-11.0-0.84","110","2022-3-28","12:49:33","1","19","[""White""]","No","Male","1412522","","","","","","","","211","57","113","25","25","0",""
"null","null","clear_screen","canvas-keyboard-response","180","757754","0.0-11.0-1.84","110","2022-3-28","12:49:33","1","19","[""White""]","No","Male","1412522","","","","","","","","211","57","113","25","25","",""
"2830","5","rating","canvas-keyboard-response","181","760598","0.0-11.0-0.85","110","2022-3-28","12:49:33","1","19","[""White""]","No","Male","1412522","","","","","","","","16","30","57","10","33","1",""
"null","null","clear_screen","canvas-keyboard-response","182","760862","0.0-11.0-1.85","110","2022-3-28","12:49:33","1","19","[""White""]","No","Male","1412522","","","","","","","","16","30","57","10","33","",""
"2776","8","rating","canvas-keyboard-response","183","763655","0.0-11.0-0.86","110","2022-3-28","12:49:33","1","19","[""White""]","No","Male","1412522","","","","","","","","295","57","85","40","40","1",""
"null","null","clear_screen","canvas-keyboard-response","184","763917","0.0-11.0-1.86","110","2022-3-28","12:49:33","1","19","[""White""]","No","Male","1412522","","","","","","","","295","57","85","40","40","",""
"2027","9","rating","canvas-keyboard-response","185","765957","0.0-11.0-0.87","110","2022-3-28","12:49:33","1","19","[""White""]","No","Male","1412522","","","","","","","","70","113","140","10","10","0",""
"null","null","clear_screen","canvas-keyboard-response","186","766219","0.0-11.0-1.87","110","2022-3-28","12:49:33","1","19","[""White""]","No","Male","1412522","","","","","","","","70","113","140","10","10","",""
"9013","8","rating","canvas-keyboard-response","187","775246","0.0-11.0-0.88","110","2022-3-28","12:49:33","1","19","[""White""]","No","Male","1412522","","","","","","","","206","30","57","25","40","1",""
"null","null","clear_screen","canvas-keyboard-response","188","775506","0.0-11.0-1.88","110","2022-3-28","12:49:33","1","19","[""White""]","No","Male","1412522","","","","","","","","206","30","57","25","40","",""
"2496","4","rating","canvas-keyboard-response","189","778014","0.0-11.0-0.89","110","2022-3-28","12:49:33","1","19","[""White""]","No","Male","1412522","","","","","","","","198","30","113","25","25","0",""
"null","null","clear_screen","canvas-keyboard-response","190","778274","0.0-11.0-1.89","110","2022-3-28","12:49:33","1","19","[""White""]","No","Male","1412522","","","","","","","","198","30","113","25","25","",""
"4582","2","rating","canvas-keyboard-response","191","782869","0.0-11.0-0.90","110","2022-3-28","12:49:33","1","19","[""White""]","No","Male","1412522","","","","","","","","128","30","113","17","40","0",""
"null","null","clear_screen","canvas-keyboard-response","192","783130","0.0-11.0-1.90","110","2022-3-28","12:49:33","1","19","[""White""]","No","Male","1412522","","","","","","","","128","30","113","17","40","",""
"2008","1","rating","canvas-keyboard-response","193","785149","0.0-11.0-0.91","110","2022-3-28","12:49:33","1","19","[""White""]","No","Male","1412522","","","","","","","","81","113","30","10","33","0",""
"null","null","clear_screen","canvas-keyboard-response","194","785409","0.0-11.0-1.91","110","2022-3-28","12:49:33","1","19","[""White""]","No","Male","1412522","","","","","","","","81","113","30","10","33","",""
"3481","7","rating","canvas-keyboard-response","195","788901","0.0-11.0-0.92","110","2022-3-28","12:49:33","1","19","[""White""]","No","Male","1412522","","","","","","","","226","85","57","25","33","1",""
"null","null","clear_screen","canvas-keyboard-response","196","789162","0.0-11.0-1.92","110","2022-3-28","12:49:33","1","19","[""White""]","No","Male","1412522","","","","","","","","226","85","57","25","33","",""
"2102","8","rating","canvas-keyboard-response","197","791277","0.0-11.0-0.93","110","2022-3-28","12:49:33","1","19","[""White""]","No","Male","1412522","","","","","","","","148","85","113","17","17","1",""
"null","null","clear_screen","canvas-keyboard-response","198","791537","0.0-11.0-1.93","110","2022-3-28","12:49:33","1","19","[""White""]","No","Male","1412522","","","","","","","","148","85","113","17","17","",""
"2715","2","rating","canvas-keyboard-response","199","794262","0.0-11.0-0.94","110","2022-3-28","12:49:33","1","19","[""White""]","No","Male","1412522","","","","","","","","65","85","30","10","40","1",""
"null","null","clear_screen","canvas-keyboard-response","200","794519","0.0-11.0-1.94","110","2022-3-28","12:49:33","1","19","[""White""]","No","Male","1412522","","","","","","","","65","85","30","10","40","",""
"2736","6","rating","canvas-keyboard-response","201","797270","0.0-11.0-0.95","110","2022-3-28","12:49:33","1","19","[""White""]","No","Male","1412522","","","","","","","","30","57","85","10","17","1",""
"null","null","clear_screen","canvas-keyboard-response","202","797529","0.0-11.0-1.95","110","2022-3-28","12:49:33","1","19","[""White""]","No","Male","1412522","","","","","","","","30","57","85","10","17","",""
"2010","3","rating","canvas-keyboard-response","203","799549","0.0-11.0-0.96","110","2022-3-28","12:49:33","1","19","[""White""]","No","Male","1412522","","","","","","","","292","30","85","40","40","1",""
"null","null","clear_screen","canvas-keyboard-response","204","799812","0.0-11.0-1.96","110","2022-3-28","12:49:33","1","19","[""White""]","No","Male","1412522","","","","","","","","292","30","85","40","40","",""
"1547","2","rating","canvas-keyboard-response","205","801373","0.0-11.0-0.97","110","2022-3-28","12:49:33","1","19","[""White""]","No","Male","1412522","","","","","","","","143","57","30","17","40","1",""
"null","null","clear_screen","canvas-keyboard-response","206","801634","0.0-11.0-1.97","110","2022-3-28","12:49:33","1","19","[""White""]","No","Male","1412522","","","","","","","","143","57","30","17","40","",""
"2335","7","rating","canvas-keyboard-response","207","803982","0.0-11.0-0.98","110","2022-3-28","12:49:33","1","19","[""White""]","No","Male","1412522","","","","","","","","149","85","140","17","17","0",""
"null","null","clear_screen","canvas-keyboard-response","208","804242","0.0-11.0-1.98","110","2022-3-28","12:49:33","1","19","[""White""]","No","Male","1412522","","","","","","","","149","85","140","17","17","",""
"4246","8","rating","canvas-keyboard-response","209","808502","0.0-11.0-0.99","110","2022-3-28","12:49:33","1","19","[""White""]","No","Male","1412522","","","","","","","","75","113","140","10","17","1",""
"null","null","clear_screen","canvas-keyboard-response","210","808763","0.0-11.0-1.99","110","2022-3-28","12:49:33","1","19","[""White""]","No","Male","1412522","","","","","","","","75","113","140","10","17","",""
"2387","2","rating","canvas-keyboard-response","211","811165","0.0-11.0-0.100","110","2022-3-28","12:49:33","1","19","[""White""]","No","Male","1412522","","","","","","","","101","140","30","10","33","1",""
"null","null","clear_screen","canvas-keyboard-response","212","811426","0.0-11.0-1.100","110","2022-3-28","12:49:33","1","19","[""White""]","No","Male","1412522","","","","","","","","101","140","30","10","33","",""
"4938","8","rating","canvas-keyboard-response","213","816373","0.0-11.0-0.101","110","2022-3-28","12:49:33","1","19","[""White""]","No","Male","1412522","","","","","","","","265","57","85","33","33","0",""
"null","null","clear_screen","canvas-keyboard-response","214","816631","0.0-11.0-1.101","110","2022-3-28","12:49:33","1","19","[""White""]","No","Male","1412522","","","","","","","","265","57","85","33","33","",""
"3892","8","rating","canvas-keyboard-response","215","820541","0.0-11.0-0.102","110","2022-3-28","12:49:33","1","19","[""White""]","No","Male","1412522","","","","","","","","298","85","113","40","40","1",""
"null","null","clear_screen","canvas-keyboard-response","216","820802","0.0-11.0-1.102","110","2022-3-28","12:49:33","1","19","[""White""]","No","Male","1412522","","","","","","","","298","85","113","40","40","",""
"3937","9","rating","canvas-keyboard-response","217","824748","0.0-11.0-0.103","110","2022-3-28","12:49:33","1","19","[""White""]","No","Male","1412522","","","","","","","","235","113","140","25","25","1",""
"null","null","clear_screen","canvas-keyboard-response","218","825006","0.0-11.0-1.103","110","2022-3-28","12:49:33","1","19","[""White""]","No","Male","1412522","","","","","","","","235","113","140","25","25","",""
"1373","9","rating","canvas-keyboard-response","219","826389","0.0-11.0-0.104","110","2022-3-28","12:49:33","1","19","[""White""]","No","Male","1412522","","","","","","","","205","30","30","25","40","0",""
"null","null","clear_screen","canvas-keyboard-response","220","826650","0.0-11.0-1.104","110","2022-3-28","12:49:33","1","19","[""White""]","No","Male","1412522","","","","","","","","205","30","30","25","40","",""
"2214","8","rating","canvas-keyboard-response","221","828877","0.0-11.0-0.105","110","2022-3-28","12:49:33","1","19","[""White""]","No","Male","1412522","","","","","","","","190","140","140","17","33","0",""
"null","null","clear_screen","canvas-keyboard-response","222","829138","0.0-11.0-1.105","110","2022-3-28","12:49:33","1","19","[""White""]","No","Male","1412522","","","","","","","","190","140","140","17","33","",""
"4089","5","rating","canvas-keyboard-response","223","833237","0.0-11.0-0.106","110","2022-3-28","12:49:33","1","19","[""White""]","No","Male","1412522","","","","","","","","241","113","30","25","40","0",""
"null","null","clear_screen","canvas-keyboard-response","224","833498","0.0-11.0-1.106","110","2022-3-28","12:49:33","1","19","[""White""]","No","Male","1412522","","","","","","","","241","113","30","25","40","",""
"3977","4","rating","canvas-keyboard-response","225","837485","0.0-11.0-0.107","110","2022-3-28","12:49:33","1","19","[""White""]","No","Male","1412522","","","","","","","","237","113","57","25","33","1",""
"null","null","clear_screen","canvas-keyboard-response","226","837745","0.0-11.0-1.107","110","2022-3-28","12:49:33","1","19","[""White""]","No","Male","1412522","","","","","","","","237","113","57","25","33","",""
"1962","8","rating","canvas-keyboard-response","227","839718","0.0-11.0-0.108","110","2022-3-28","12:49:33","1","19","[""White""]","No","Male","1412522","","","","","","","","6","30","57","10","17","1",""
"null","null","clear_screen","canvas-keyboard-response","228","839979","0.0-11.0-1.108","110","2022-3-28","12:49:33","1","19","[""White""]","No","Male","1412522","","","","","","","","6","30","57","10","17","",""
"6525","8","rating","canvas-keyboard-response","229","846517","0.0-11.0-0.109","110","2022-3-28","12:49:33","1","19","[""White""]","No","Male","1412522","","","","","","","","26","57","113","10","10","1",""
"null","null","clear_screen","canvas-keyboard-response","230","846777","0.0-11.0-1.109","110","2022-3-28","12:49:33","1","19","[""White""]","No","Male","1412522","","","","","","","","26","57","113","10","10","",""
"3088","8","rating","canvas-keyboard-response","231","849877","0.0-11.0-0.110","110","2022-3-28","12:49:33","1","19","[""White""]","No","Male","1412522","","","","","","","","228","85","113","25","33","0",""
"null","null","clear_screen","canvas-keyboard-response","232","850139","0.0-11.0-1.110","110","2022-3-28","12:49:33","1","19","[""White""]","No","Male","1412522","","","","","","","","228","85","113","25","33","",""
"9096","4","rating","canvas-keyboard-response","233","859246","0.0-11.0-0.111","110","2022-3-28","12:49:33","1","19","[""White""]","No","Male","1412522","","","","","","","","159","85","140","17","33","1",""
"null","null","clear_screen","canvas-keyboard-response","234","859506","0.0-11.0-1.111","110","2022-3-28","12:49:33","1","19","[""White""]","No","Male","1412522","","","","","","","","159","85","140","17","33","",""
"6945","5","rating","canvas-keyboard-response","235","866462","0.0-11.0-0.112","110","2022-3-28","12:49:33","1","19","[""White""]","No","Male","1412522","","","","","","","","54","85","140","10","17","1",""
"null","null","clear_screen","canvas-keyboard-response","236","866719","0.0-11.0-1.112","110","2022-3-28","12:49:33","1","19","[""White""]","No","Male","1412522","","","","","","","","54","85","140","10","17","",""
"2051","6","rating","canvas-keyboard-response","237","868781","0.0-11.0-0.113","110","2022-3-28","12:49:33","1","19","[""White""]","No","Male","1412522","","","","","","","","100","140","140","10","25","0",""
"null","null","clear_screen","canvas-keyboard-response","238","869042","0.0-11.0-1.113","110","2022-3-28","12:49:33","1","19","[""White""]","No","Male","1412522","","","","","","","","100","140","140","10","25","",""
"3677","3","rating","canvas-keyboard-response","239","872725","0.0-11.0-0.114","110","2022-3-28","12:49:33","1","19","[""White""]","No","Male","1412522","","","","","","","","88","113","85","10","40","1",""
"null","null","clear_screen","canvas-keyboard-response","240","872986","0.0-11.0-1.114","110","2022-3-28","12:49:33","1","19","[""White""]","No","Male","1412522","","","","","","","","88","113","85","10","40","",""
"2416","9","rating","canvas-keyboard-response","241","875414","0.0-11.0-0.115","110","2022-3-28","12:49:33","1","19","[""White""]","No","Male","1412522","","","","","","","","200","30","30","25","33","0",""
"null","null","clear_screen","canvas-keyboard-response","242","875673","0.0-11.0-1.115","110","2022-3-28","12:49:33","1","19","[""White""]","No","Male","1412522","","","","","","","","200","30","30","25","33","",""
"1821","8","rating","canvas-keyboard-response","243","877509","0.0-11.0-0.116","110","2022-3-28","12:49:33","1","19","[""White""]","No","Male","1412522","","","","","","","","174","113","113","17","33","0",""
"null","null","clear_screen","canvas-keyboard-response","244","877769","0.0-11.0-1.116","110","2022-3-28","12:49:33","1","19","[""White""]","No","Male","1412522","","","","","","","","174","113","113","17","33","",""
"2065","5","rating","canvas-keyboard-response","245","879845","0.0-11.0-0.117","110","2022-3-28","12:49:33","1","19","[""White""]","No","Male","1412522","","","","","","","","109","140","113","10","40","1",""
"null","null","clear_screen","canvas-keyboard-response","246","880105","0.0-11.0-1.117","110","2022-3-28","12:49:33","1","19","[""White""]","No","Male","1412522","","","","","","","","109","140","113","10","40","",""
"3233","6","rating","canvas-keyboard-response","247","883351","0.0-11.0-0.118","110","2022-3-28","12:49:33","1","19","[""White""]","No","Male","1412522","","","","","","","","262","30","85","33","40","1",""
"null","null","clear_screen","canvas-keyboard-response","248","883611","0.0-11.0-1.118","110","2022-3-28","12:49:33","1","19","[""White""]","No","Male","1412522","","","","","","","","262","30","85","33","40","",""
"2909","2","rating","canvas-keyboard-response","249","886533","0.0-11.0-0.119","110","2022-3-28","12:49:33","1","19","[""White""]","No","Male","1412522","","","","","","","","160","85","30","17","40","1",""
"null","null","clear_screen","canvas-keyboard-response","250","886792","0.0-11.0-1.119","110","2022-3-28","12:49:33","1","19","[""White""]","No","Male","1412522","","","","","","","","160","85","30","17","40","",""
"961","1","rating","canvas-keyboard-response","251","887765","0.0-11.0-0.120","110","2022-3-28","12:49:33","1","19","[""White""]","No","Male","1412522","","","","","","","","127","30","85","17","40","0",""
"null","null","clear_screen","canvas-keyboard-response","252","888026","0.0-11.0-1.120","110","2022-3-28","12:49:33","1","19","[""White""]","No","Male","1412522","","","","","","","","127","30","85","17","40","",""
"1799","5","rating","canvas-keyboard-response","253","889837","0.0-11.0-0.121","110","2022-3-28","12:49:33","1","19","[""White""]","No","Male","1412522","","","","","","","","146","57","113","17","40","0",""
"null","null","clear_screen","canvas-keyboard-response","254","890101","0.0-11.0-1.121","110","2022-3-28","12:49:33","1","19","[""White""]","No","Male","1412522","","","","","","","","146","57","113","17","40","",""
"1332","1","rating","canvas-keyboard-response","255","891445","0.0-11.0-0.122","110","2022-3-28","12:49:33","1","19","[""White""]","No","Male","1412522","","","","","","","","155","85","30","17","33","0",""
"null","null","clear_screen","canvas-keyboard-response","256","891703","0.0-11.0-1.122","110","2022-3-28","12:49:33","1","19","[""White""]","No","Male","1412522","","","","","","","","155","85","30","17","33","",""
"4910","1","rating","canvas-keyboard-response","257","896630","0.0-11.0-0.123","110","2022-3-28","12:49:33","1","19","[""White""]","No","Male","1412522","","","","","","","","55","85","30","10","25","0",""
"null","null","clear_screen","canvas-keyboard-response","258","896888","0.0-11.0-1.123","110","2022-3-28","12:49:33","1","19","[""White""]","No","Male","1412522","","","","","","","","55","85","30","10","25","",""
"2217","9","rating","canvas-keyboard-response","259","899117","0.0-11.0-0.124","110","2022-3-28","12:49:33","1","19","[""White""]","No","Male","1412522","","","","","","","","250","140","140","25","33","1",""
"null","null","clear_screen","canvas-keyboard-response","260","899377","0.0-11.0-1.124","110","2022-3-28","12:49:33","1","19","[""White""]","No","Male","1412522","","","","","","","","250","140","140","25","33","",""
"2779","5","rating","canvas-keyboard-response","261","902166","0.0-11.0-0.125","110","2022-3-28","12:49:33","1","19","[""White""]","No","Male","1412522","","","","","","","","293","30","113","40","40","0",""
"null","null","clear_screen","canvas-keyboard-response","262","902424","0.0-11.0-1.125","110","2022-3-28","12:49:33","1","19","[""White""]","No","Male","1412522","","","","","","","","293","30","113","40","40","",""
"1553","9","rating","canvas-keyboard-response","263","903989","0.0-11.0-0.126","110","2022-3-28","12:49:33","1","19","[""White""]","No","Male","1412522","","","","","","","","5","30","30","10","17","0",""
"null","null","clear_screen","canvas-keyboard-response","264","904251","0.0-11.0-1.126","110","2022-3-28","12:49:33","1","19","[""White""]","No","Male","1412522","","","","","","","","5","30","30","10","17","",""
"1202","8","rating","canvas-keyboard-response","265","905461","0.0-11.0-0.127","110","2022-3-28","12:49:33","1","19","[""White""]","No","Male","1412522","","","","","","","","179","113","113","17","40","0",""
"null","null","clear_screen","canvas-keyboard-response","266","905720","0.0-11.0-1.127","110","2022-3-28","12:49:33","1","19","[""White""]","No","Male","1412522","","","","","","","","179","113","113","17","40","",""
"3550","3","rating","canvas-keyboard-response","267","909285","0.0-11.0-0.128","110","2022-3-28","12:49:33","1","19","[""White""]","No","Male","1412522","","","","","","","","218","57","30","25","40","1",""
"null","null","clear_screen","canvas-keyboard-response","268","909543","0.0-11.0-1.128","110","2022-3-28","12:49:33","1","19","[""White""]","No","Male","1412522","","","","","","","","218","57","30","25","40","",""
"1954","4","rating","canvas-keyboard-response","269","911508","0.0-11.0-0.129","110","2022-3-28","12:49:33","1","19","[""White""]","No","Male","1412522","","","","","","","","31","57","113","10","17","1",""
"null","null","clear_screen","canvas-keyboard-response","270","911769","0.0-11.0-1.129","110","2022-3-28","12:49:33","1","19","[""White""]","No","Male","1412522","","","","","","","","31","57","113","10","17","",""
"2231","2","rating","canvas-keyboard-response","271","914013","0.0-11.0-0.130","110","2022-3-28","12:49:33","1","19","[""White""]","No","Male","1412522","","","","","","","","164","85","140","17","40","0",""
"null","null","clear_screen","canvas-keyboard-response","272","914271","0.0-11.0-1.130","110","2022-3-28","12:49:33","1","19","[""White""]","No","Male","1412522","","","","","","","","164","85","140","17","40","",""
"2760","4","rating","canvas-keyboard-response","273","917045","0.0-11.0-0.131","110","2022-3-28","12:49:33","1","19","[""White""]","No","Male","1412522","","","","","","","","283","113","85","33","40","1",""
"null","null","clear_screen","canvas-keyboard-response","274","917306","0.0-11.0-1.131","110","2022-3-28","12:49:33","1","19","[""White""]","No","Male","1412522","","","","","","","","283","113","85","33","40","",""
"2007","5","rating","canvas-keyboard-response","275","919327","0.0-11.0-0.132","110","2022-3-28","12:49:33","1","19","[""White""]","No","Male","1412522","","","","","","","","183","140","85","17","25","0",""
"null","null","clear_screen","canvas-keyboard-response","276","919587","0.0-11.0-1.132","110","2022-3-28","12:49:33","1","19","[""White""]","No","Male","1412522","","","","","","","","183","140","85","17","25","",""
"2788","6","rating","canvas-keyboard-response","277","922390","0.0-11.0-0.133","110","2022-3-28","12:49:33","1","19","[""White""]","No","Male","1412522","","","","","","","","2","30","85","10","10","0",""
"null","null","clear_screen","canvas-keyboard-response","278","922650","0.0-11.0-1.133","110","2022-3-28","12:49:33","1","19","[""White""]","No","Male","1412522","","","","","","","","2","30","85","10","10","",""
"3944","2","rating","canvas-keyboard-response","279","926605","0.0-11.0-0.134","110","2022-3-28","12:49:33","1","19","[""White""]","No","Male","1412522","","","","","","","","42","57","140","10","33","0",""
"null","null","clear_screen","canvas-keyboard-response","280","926867","0.0-11.0-1.134","110","2022-3-28","12:49:33","1","19","[""White""]","No","Male","1412522","","","","","","","","42","57","140","10","33","",""
"2679","2","rating","canvas-keyboard-response","281","929557","0.0-11.0-0.135","110","2022-3-28","12:49:33","1","19","[""White""]","No","Male","1412522","","","","","","","","252","140","57","25","40","0",""
"null","null","clear_screen","canvas-keyboard-response","282","929818","0.0-11.0-1.135","110","2022-3-28","12:49:33","1","19","[""White""]","No","Male","1412522","","","","","","","","252","140","57","25","40","",""
"2479","4","rating","canvas-keyboard-response","283","932309","0.0-11.0-0.136","110","2022-3-28","12:49:33","1","19","[""White""]","No","Male","1412522","","","","","","","","286","140","30","33","40","1",""
"null","null","clear_screen","canvas-keyboard-response","284","932569","0.0-11.0-1.136","110","2022-3-28","12:49:33","1","19","[""White""]","No","Male","1412522","","","","","","","","286","140","30","33","40","",""
"3032","8","rating","canvas-keyboard-response","285","935613","0.0-11.0-0.137","110","2022-3-28","12:49:33","1","19","[""White""]","No","Male","1412522","","","","","","","","240","113","140","25","33","1",""
"null","null","clear_screen","canvas-keyboard-response","286","935873","0.0-11.0-1.137","110","2022-3-28","12:49:33","1","19","[""White""]","No","Male","1412522","","","","","","","","240","113","140","25","33","",""
"2630","3","rating","canvas-keyboard-response","287","938517","0.0-11.0-0.138","110","2022-3-28","12:49:33","1","19","[""White""]","No","Male","1412522","","","","","","","","147","57","140","17","40","1",""
"null","null","clear_screen","canvas-keyboard-response","288","938778","0.0-11.0-1.138","110","2022-3-28","12:49:33","1","19","[""White""]","No","Male","1412522","","","","","","","","147","57","140","17","40","",""
"2092","4","rating","canvas-keyboard-response","289","940885","0.0-11.0-0.139","110","2022-3-28","12:49:33","1","19","[""White""]","No","Male","1412522","","","","","","","","231","85","57","25","40","0",""
"null","null","clear_screen","canvas-keyboard-response","290","941148","0.0-11.0-1.139","110","2022-3-28","12:49:33","1","19","[""White""]","No","Male","1412522","","","","","","","","231","85","57","25","40","",""
"2201","6","rating","canvas-keyboard-response","291","943365","0.0-11.0-0.140","110","2022-3-28","12:49:33","1","19","[""White""]","No","Male","1412522","","","","","","","","73","113","85","10","17","0",""
"null","null","clear_screen","canvas-keyboard-response","292","943623","0.0-11.0-1.140","110","2022-3-28","12:49:33","1","19","[""White""]","No","Male","1412522","","","","","","","","73","113","85","10","17","",""
"2707","4","rating","canvas-keyboard-response","293","946340","0.0-11.0-0.141","110","2022-3-28","12:49:33","1","19","[""White""]","No","Male","1412522","","","","","","","","216","57","113","25","33","0",""
"null","null","clear_screen","canvas-keyboard-response","294","946599","0.0-11.0-1.141","110","2022-3-28","12:49:33","1","19","[""White""]","No","Male","1412522","","","","","","","","216","57","113","25","33","",""
"3163","5","rating","canvas-keyboard-response","295","949774","0.0-11.0-0.142","110","2022-3-28","12:49:33","1","19","[""White""]","No","Male","1412522","","","","","","","","253","140","85","25","40","0",""
"null","null","clear_screen","canvas-keyboard-response","296","950034","0.0-11.0-1.142","110","2022-3-28","12:49:33","1","19","[""White""]","No","Male","1412522","","","","","","","","253","140","85","25","40","",""
"2551","4","rating","canvas-keyboard-response","297","952596","0.0-11.0-0.143","110","2022-3-28","12:49:33","1","19","[""White""]","No","Male","1412522","","","","","","","","118","30","113","17","25","0",""
"null","null","clear_screen","canvas-keyboard-response","298","952857","0.0-11.0-1.143","110","2022-3-28","12:49:33","1","19","[""White""]","No","Male","1412522","","","","","","","","118","30","113","17","25","",""
"2799","4","rating","canvas-keyboard-response","299","955669","0.0-11.0-0.144","110","2022-3-28","12:49:33","1","19","[""White""]","No","Male","1412522","","","","","","","","225","85","30","25","33","0",""
"null","null","clear_screen","canvas-keyboard-response","300","955929","0.0-11.0-1.144","110","2022-3-28","12:49:33","1","19","[""White""]","No","Male","1412522","","","","","","","","225","85","30","25","33","",""
"1824","1","rating","canvas-keyboard-response","301","957765","0.0-11.0-0.145","110","2022-3-28","12:49:33","1","19","[""White""]","No","Male","1412522","","","","","","","","86","113","30","10","40","0",""
"null","null","clear_screen","canvas-keyboard-response","302","958025","0.0-11.0-1.145","110","2022-3-28","12:49:33","1","19","[""White""]","No","Male","1412522","","","","","","","","86","113","30","10","40","",""
"2453","4","rating","canvas-keyboard-response","303","960492","0.0-11.0-0.146","110","2022-3-28","12:49:33","1","19","[""White""]","No","Male","1412522","","","","","","","","204","30","140","25","33","1",""
"null","null","clear_screen","canvas-keyboard-response","304","960753","0.0-11.0-1.146","110","2022-3-28","12:49:33","1","19","[""White""]","No","Male","1412522","","","","","","","","204","30","140","25","33","",""
"1840","3","rating","canvas-keyboard-response","305","962605","0.0-11.0-0.147","110","2022-3-28","12:49:33","1","19","[""White""]","No","Male","1412522","","","","","","","","199","30","140","25","25","1",""
"null","null","clear_screen","canvas-keyboard-response","306","962867","0.0-11.0-1.147","110","2022-3-28","12:49:33","1","19","[""White""]","No","Male","1412522","","","","","","","","199","30","140","25","25","",""
"2262","4","rating","canvas-keyboard-response","307","965141","0.0-11.0-0.148","110","2022-3-28","12:49:33","1","19","[""White""]","No","Male","1412522","","","","","","","","117","30","85","17","25","0",""
"null","null","clear_screen","canvas-keyboard-response","308","965402","0.0-11.0-1.148","110","2022-3-28","12:49:33","1","19","[""White""]","No","Male","1412522","","","","","","","","117","30","85","17","25","",""
"1719","6","rating","canvas-keyboard-response","309","967133","0.0-11.0-0.149","110","2022-3-28","12:49:33","1","19","[""White""]","No","Male","1412522","","","","","","","","220","57","85","25","40","1",""
"null","null","clear_screen","canvas-keyboard-response","310","967392","0.0-11.0-1.149","110","2022-3-28","12:49:33","1","19","[""White""]","No","Male","1412522","","","","","","","","220","57","85","25","40","",""
"2168","6","rating","canvas-keyboard-response","311","969574","0.0-11.0-0.150","110","2022-3-28","12:49:33","1","19","[""White""]","No","Male","1412522","","","","","","","","189","140","113","17","33","1",""
"null","null","clear_screen","canvas-keyboard-response","312","969834","0.0-11.0-1.150","110","2022-3-28","12:49:33","1","19","[""White""]","No","Male","1412522","","","","","","","","189","140","113","17","33","",""
"2960","5","rating","canvas-keyboard-response","313","972806","0.0-11.0-0.151","110","2022-3-28","12:49:33","1","19","[""White""]","No","Male","1412522","","","","","","","","167","113","57","17","25","1",""
"null","null","clear_screen","canvas-keyboard-response","314","973066","0.0-11.0-1.151","110","2022-3-28","12:49:33","1","19","[""White""]","No","Male","1412522","","","","","","","","167","113","57","17","25","",""
"2639","5","rating","canvas-keyboard-response","315","975718","0.0-11.0-0.152","110","2022-3-28","12:49:33","1","19","[""White""]","No","Male","1412522","","","","","","","","137","57","140","17","25","1",""
"null","null","clear_screen","canvas-keyboard-response","316","975979","0.0-11.0-1.152","110","2022-3-28","12:49:33","1","19","[""White""]","No","Male","1412522","","","","","","","","137","57","140","17","25","",""
"2373","4","rating","canvas-keyboard-response","317","978366","0.0-11.0-0.153","110","2022-3-28","12:49:33","1","19","[""White""]","No","Male","1412522","","","","","","","","242","113","57","25","40","1",""
"null","null","clear_screen","canvas-keyboard-response","318","978628","0.0-11.0-1.153","110","2022-3-28","12:49:33","1","19","[""White""]","No","Male","1412522","","","","","","","","242","113","57","25","40","",""
"1841","2","rating","canvas-keyboard-response","319","980485","0.0-11.0-0.154","110","2022-3-28","12:49:33","1","19","[""White""]","No","Male","1412522","","","","","","","","60","85","30","10","33","1",""
"null","null","clear_screen","canvas-keyboard-response","320","980746","0.0-11.0-1.154","110","2022-3-28","12:49:33","1","19","[""White""]","No","Male","1412522","","","","","","","","60","85","30","10","33","",""
"5139","3","rating","canvas-keyboard-response","321","985902","0.0-11.0-0.155","110","2022-3-28","12:49:33","1","19","[""White""]","No","Male","1412522","","","","","","","","92","140","57","10","17","0",""
"null","null","clear_screen","canvas-keyboard-response","322","986161","0.0-11.0-1.155","110","2022-3-28","12:49:33","1","19","[""White""]","No","Male","1412522","","","","","","","","92","140","57","10","17","",""
"2315","2","rating","canvas-keyboard-response","323","988485","0.0-11.0-0.156","110","2022-3-28","12:49:33","1","19","[""White""]","No","Male","1412522","","","","","","","","8","30","113","10","17","0",""
"null","null","clear_screen","canvas-keyboard-response","324","988750","0.0-11.0-1.156","110","2022-3-28","12:49:33","1","19","[""White""]","No","Male","1412522","","","","","","","","8","30","113","10","17","",""
"5380","5","rating","canvas-keyboard-response","325","994141","0.0-11.0-0.157","110","2022-3-28","12:49:33","1","19","[""White""]","No","Male","1412522","","","","","","","","20","30","30","10","40","1",""
"null","null","clear_screen","canvas-keyboard-response","326","994402","0.0-11.0-1.157","110","2022-3-28","12:49:33","1","19","[""White""]","No","Male","1412522","","","","","","","","20","30","30","10","40","",""
"5829","5","rating","canvas-keyboard-response","327","1000246","0.0-11.0-0.158","110","2022-3-28","12:49:33","1","19","[""White""]","No","Male","1412522","","","","","","","","297","57","140","40","40","1",""
"null","null","clear_screen","canvas-keyboard-response","328","1000509","0.0-11.0-1.158","110","2022-3-28","12:49:33","1","19","[""White""]","No","Male","1412522","","","","","","","","297","57","140","40","40","",""
"2005","9","rating","canvas-keyboard-response","329","1002525","0.0-11.0-0.159","110","2022-3-28","12:49:33","1","19","[""White""]","No","Male","1412522","","","","","","","","95","140","140","10","17","0",""
"null","null","clear_screen","canvas-keyboard-response","330","1002785","0.0-11.0-1.159","110","2022-3-28","12:49:33","1","19","[""White""]","No","Male","1412522","","","","","","","","95","140","140","10","17","",""
"1038","9","rating","canvas-keyboard-response","331","1003837","0.0-11.0-0.160","110","2022-3-28","12:49:33","1","19","[""White""]","No","Male","1412522","","","","","","","","284","113","113","33","40","0",""
"null","null","clear_screen","canvas-keyboard-response","332","1004095","0.0-11.0-1.160","110","2022-3-28","12:49:33","1","19","[""White""]","No","Male","1412522","","","","","","","","284","113","113","33","40","",""
"1900","6","rating","canvas-keyboard-response","333","1006005","0.0-11.0-0.161","110","2022-3-28","12:49:33","1","19","[""White""]","No","Male","1412522","","","","","","","","177","113","57","17","40","0",""
"null","null","clear_screen","canvas-keyboard-response","334","1006265","0.0-11.0-1.161","110","2022-3-28","12:49:33","1","19","[""White""]","No","Male","1412522","","","","","","","","177","113","57","17","40","",""
"3272","8","rating","canvas-keyboard-response","335","1009540","0.0-11.0-0.162","110","2022-3-28","12:49:33","1","19","[""White""]","No","Male","1412522","","","","","","","","29","57","57","10","17","1",""
"null","null","clear_screen","canvas-keyboard-response","336","1009802","0.0-11.0-1.162","110","2022-3-28","12:49:33","1","19","[""White""]","No","Male","1412522","","","","","","","","29","57","57","10","17","",""
"3199","3","rating","canvas-keyboard-response","337","1013013","0.0-11.0-0.163","110","2022-3-28","12:49:33","1","19","[""White""]","No","Male","1412522","","","","","","","","77","113","57","10","25","1",""
"null","null","clear_screen","canvas-keyboard-response","338","1013277","0.0-11.0-1.163","110","2022-3-28","12:49:33","1","19","[""White""]","No","Male","1412522","","","","","","","","77","113","57","10","25","",""
"5132","2","rating","canvas-keyboard-response","339","1018421","0.0-11.0-0.164","110","2022-3-28","12:49:33","1","19","[""White""]","No","Male","1412522","","","","","","","","82","113","57","10","33","1",""
"null","null","clear_screen","canvas-keyboard-response","340","1018680","0.0-11.0-1.164","110","2022-3-28","12:49:33","1","19","[""White""]","No","Male","1412522","","","","","","","","82","113","57","10","33","",""
"1893","8","rating","canvas-keyboard-response","341","1020588","0.0-11.0-0.165","110","2022-3-28","12:49:33","1","19","[""White""]","No","Male","1412522","","","","","","","","270","57","85","33","40","0",""
"null","null","clear_screen","canvas-keyboard-response","342","1020849","0.0-11.0-1.165","110","2022-3-28","12:49:33","1","19","[""White""]","No","Male","1412522","","","","","","","","270","57","85","33","40","",""
"1006","8","rating","canvas-keyboard-response","343","1021869","0.0-11.0-0.166","110","2022-3-28","12:49:33","1","19","[""White""]","No","Male","1412522","","","","","","","","260","30","30","33","40","1",""
"null","null","clear_screen","canvas-keyboard-response","344","1022128","0.0-11.0-1.166","110","2022-3-28","12:49:33","1","19","[""White""]","No","Male","1412522","","","","","","","","260","30","30","33","40","",""
"2104","8","rating","canvas-keyboard-response","345","1024245","0.0-11.0-0.167","110","2022-3-28","12:49:33","1","19","[""White""]","No","Male","1412522","","","","","","","","52","85","85","10","17","1",""
"null","null","clear_screen","canvas-keyboard-response","346","1024507","0.0-11.0-1.167","110","2022-3-28","12:49:33","1","19","[""White""]","No","Male","1412522","","","","","","","","52","85","85","10","17","",""
"1994","9","rating","canvas-keyboard-response","347","1026517","0.0-11.0-0.168","110","2022-3-28","12:49:33","1","19","[""White""]","No","Male","1412522","","","","","","","","152","85","85","17","25","1",""
"null","null","clear_screen","canvas-keyboard-response","348","1026777","0.0-11.0-1.168","110","2022-3-28","12:49:33","1","19","[""White""]","No","Male","1412522","","","","","","","","152","85","85","17","25","",""
"5190","8","rating","canvas-keyboard-response","349","1031981","0.0-11.0-0.169","110","2022-3-28","12:49:33","1","19","[""White""]","No","Male","1412522","","","","","","","","244","113","113","25","40","1",""
"null","null","clear_screen","canvas-keyboard-response","350","1032241","0.0-11.0-1.169","110","2022-3-28","12:49:33","1","19","[""White""]","No","Male","1412522","","","","","","","","244","113","113","25","40","",""
"2037","3","rating","canvas-keyboard-response","351","1034294","0.0-11.0-0.170","110","2022-3-28","12:49:33","1","19","[""White""]","No","Male","1412522","","","","","","","","41","57","113","10","33","0",""
"null","null","clear_screen","canvas-keyboard-response","352","1034555","0.0-11.0-1.170","110","2022-3-28","12:49:33","1","19","[""White""]","No","Male","1412522","","","","","","","","41","57","113","10","33","",""
"2585","2","rating","canvas-keyboard-response","353","1037149","0.0-11.0-0.171","110","2022-3-28","12:49:33","1","19","[""White""]","No","Male","1412522","","","","","","","","150","85","30","17","25","0",""
"null","null","clear_screen","canvas-keyboard-response","354","1037408","0.0-11.0-1.171","110","2022-3-28","12:49:33","1","19","[""White""]","No","Male","1412522","","","","","","","","150","85","30","17","25","",""
"2101","7","rating","canvas-keyboard-response","355","1039517","0.0-11.0-0.172","110","2022-3-28","12:49:33","1","19","[""White""]","No","Male","1412522","","","","","","","","214","57","57","25","33","1",""
"null","null","clear_screen","canvas-keyboard-response","356","1039775","0.0-11.0-1.172","110","2022-3-28","12:49:33","1","19","[""White""]","No","Male","1412522","","","","","","","","214","57","57","25","33","",""
"2142","3","rating","canvas-keyboard-response","357","1041934","0.0-11.0-0.173","110","2022-3-28","12:49:33","1","19","[""White""]","No","Male","1412522","","","","","","","","68","85","113","10","40","1",""
"null","null","clear_screen","canvas-keyboard-response","358","1042196","0.0-11.0-1.173","110","2022-3-28","12:49:33","1","19","[""White""]","No","Male","1412522","","","","","","","","68","85","113","10","40","",""
"1778","2","rating","canvas-keyboard-response","359","1043990","0.0-11.0-0.174","110","2022-3-28","12:49:33","1","19","[""White""]","No","Male","1412522","","","","","","","","13","30","113","10","25","0",""
"null","null","clear_screen","canvas-keyboard-response","360","1044250","0.0-11.0-1.174","110","2022-3-28","12:49:33","1","19","[""White""]","No","Male","1412522","","","","","","","","13","30","113","10","25","",""
"2357","4","rating","canvas-keyboard-response","361","1046621","0.0-11.0-0.175","110","2022-3-28","12:49:33","1","19","[""White""]","No","Male","1412522","","","","","","","","3","30","113","10","10","1",""
"null","null","clear_screen","canvas-keyboard-response","362","1046881","0.0-11.0-1.175","110","2022-3-28","12:49:33","1","19","[""White""]","No","Male","1412522","","","","","","","","3","30","113","10","10","",""
"3072","5","rating","canvas-keyboard-response","363","1049964","0.0-11.0-0.176","110","2022-3-28","12:49:33","1","19","[""White""]","No","Male","1412522","","","","","","","","67","85","85","10","40","1",""
"null","null","clear_screen","canvas-keyboard-response","364","1050226","0.0-11.0-1.176","110","2022-3-28","12:49:33","1","19","[""White""]","No","Male","1412522","","","","","","","","67","85","85","10","40","",""
"3230","4","rating","canvas-keyboard-response","365","1053469","0.0-11.0-0.177","110","2022-3-28","12:49:33","1","19","[""White""]","No","Male","1412522","","","","","","","","287","140","57","33","40","1",""
"null","null","clear_screen","canvas-keyboard-response","366","1053730","0.0-11.0-1.177","110","2022-3-28","12:49:33","1","19","[""White""]","No","Male","1412522","","","","","","","","287","140","57","33","40","",""
"1829","5","rating","canvas-keyboard-response","367","1055573","0.0-11.0-0.178","110","2022-3-28","12:49:33","1","19","[""White""]","No","Male","1412522","","","","","","","","39","57","57","10","33","1",""
"null","null","clear_screen","canvas-keyboard-response","368","1055831","0.0-11.0-1.178","110","2022-3-28","12:49:33","1","19","[""White""]","No","Male","1412522","","","","","","","","39","57","57","10","33","",""
"1938","5","rating","canvas-keyboard-response","369","1057781","0.0-11.0-0.179","110","2022-3-28","12:49:33","1","19","[""White""]","No","Male","1412522","","","","","","","","112","30","85","17","17","0",""
"null","null","clear_screen","canvas-keyboard-response","370","1058041","0.0-11.0-1.179","110","2022-3-28","12:49:33","1","19","[""White""]","No","Male","1412522","","","","","","","","112","30","85","17","17","",""
"4029","5","rating","canvas-keyboard-response","371","1062085","0.0-11.0-0.180","110","2022-3-28","12:49:33","1","19","[""White""]","No","Male","1412522","","","","","","","","79","113","113","10","25","0",""
"null","null","clear_screen","canvas-keyboard-response","372","1062347","0.0-11.0-1.180","110","2022-3-28","12:49:33","1","19","[""White""]","No","Male","1412522","","","","","","","","79","113","113","10","25","",""
"2328","4","rating","canvas-keyboard-response","373","1064685","0.0-11.0-0.181","110","2022-3-28","12:49:33","1","19","[""White""]","No","Male","1412522","","","","","","","","213","57","30","25","33","0",""
"null","null","clear_screen","canvas-keyboard-response","374","1064943","0.0-11.0-1.181","110","2022-3-28","12:49:33","1","19","[""White""]","No","Male","1412522","","","","","","","","213","57","30","25","33","",""
"1926","7","rating","canvas-keyboard-response","375","1066885","0.0-11.0-0.182","110","2022-3-28","12:49:33","1","19","[""White""]","No","Male","1412522","","","","","","","","285","113","140","33","40","0",""
"null","null","clear_screen","canvas-keyboard-response","376","1067146","0.0-11.0-1.182","110","2022-3-28","12:49:33","1","19","[""White""]","No","Male","1412522","","","","","","","","285","113","140","33","40","",""
"2081","4","rating","canvas-keyboard-response","377","1069237","0.0-11.0-0.183","110","2022-3-28","12:49:33","1","19","[""White""]","No","Male","1412522","","","","","","","","264","30","140","33","40","1",""
"null","null","clear_screen","canvas-keyboard-response","378","1069498","0.0-11.0-1.183","110","2022-3-28","12:49:33","1","19","[""White""]","No","Male","1412522","","","","","","","","264","30","140","33","40","",""
"3625","4","rating","canvas-keyboard-response","379","1073132","0.0-11.0-0.184","110","2022-3-28","12:49:33","1","19","[""White""]","No","Male","1412522","","","","","","","","11","30","57","10","25","0",""
"null","null","clear_screen","canvas-keyboard-response","380","1073395","0.0-11.0-1.184","110","2022-3-28","12:49:33","1","19","[""White""]","No","Male","1412522","","","","","","","","11","30","57","10","25","",""
"2134","4","rating","canvas-keyboard-response","381","1075541","0.0-11.0-0.185","110","2022-3-28","12:49:33","1","19","[""White""]","No","Male","1412522","","","","","","","","166","113","30","17","25","0",""
"null","null","clear_screen","canvas-keyboard-response","382","1075801","0.0-11.0-1.185","110","2022-3-28","12:49:33","1","19","[""White""]","No","Male","1412522","","","","","","","","166","113","30","17","25","",""
"1425","6","rating","canvas-keyboard-response","383","1077236","0.0-11.0-0.186","110","2022-3-28","12:49:33","1","19","[""White""]","No","Male","1412522","","","","","","","","135","57","85","17","25","1",""
"null","null","clear_screen","canvas-keyboard-response","384","1077495","0.0-11.0-1.186","110","2022-3-28","12:49:33","1","19","[""White""]","No","Male","1412522","","","","","","","","135","57","85","17","25","",""
"1968","2","rating","canvas-keyboard-response","385","1079477","0.0-11.0-0.187","110","2022-3-28","12:49:33","1","19","[""White""]","No","Male","1412522","","","","","","","","12","30","85","10","25","1",""
"null","null","clear_screen","canvas-keyboard-response","386","1079736","0.0-11.0-1.187","110","2022-3-28","12:49:33","1","19","[""White""]","No","Male","1412522","","","","","","","","12","30","85","10","25","",""
"2409","4","rating","canvas-keyboard-response","387","1082157","0.0-11.0-0.188","110","2022-3-28","12:49:33","1","19","[""White""]","No","Male","1412522","","","","","","","","217","57","140","25","33","0",""
"null","null","clear_screen","canvas-keyboard-response","388","1082415","0.0-11.0-1.188","110","2022-3-28","12:49:33","1","19","[""White""]","No","Male","1412522","","","","","","","","217","57","140","25","33","",""
"3099","2","rating","canvas-keyboard-response","389","1085524","0.0-11.0-0.189","110","2022-3-28","12:49:33","1","19","[""White""]","No","Male","1412522","","","","","","","","76","113","30","10","25","0",""
"null","null","clear_screen","canvas-keyboard-response","390","1085785","0.0-11.0-1.189","110","2022-3-28","12:49:33","1","19","[""White""]","No","Male","1412522","","","","","","","","76","113","30","10","25","",""
"3076","4","rating","canvas-keyboard-response","391","1088877","0.0-11.0-0.190","110","2022-3-28","12:49:33","1","19","[""White""]","No","Male","1412522","","","","","","","","203","30","113","25","33","0",""
"null","null","clear_screen","canvas-keyboard-response","392","1089137","0.0-11.0-1.190","110","2022-3-28","12:49:33","1","19","[""White""]","No","Male","1412522","","","","","","","","203","30","113","25","33","",""
"2473","6","rating","canvas-keyboard-response","393","1091620","0.0-11.0-0.191","110","2022-3-28","12:49:33","1","19","[""White""]","No","Male","1412522","","","","","","","","224","85","140","25","25","0",""
"null","null","clear_screen","canvas-keyboard-response","394","1091883","0.0-11.0-1.191","110","2022-3-28","12:49:33","1","19","[""White""]","No","Male","1412522","","","","","","","","224","85","140","25","25","",""
"3556","5","rating","canvas-keyboard-response","395","1095454","0.0-11.0-0.192","110","2022-3-28","12:49:33","1","19","[""White""]","No","Male","1412522","","","","","","","","141","57","113","17","33","0",""
"null","null","clear_screen","canvas-keyboard-response","396","1095716","0.0-11.0-1.192","110","2022-3-28","12:49:33","1","19","[""White""]","No","Male","1412522","","","","","","","","141","57","113","17","33","",""
"2784","8","rating","canvas-keyboard-response","397","1098517","0.0-11.0-0.193","110","2022-3-28","12:49:33","1","19","[""White""]","No","Male","1412522","","","","","","","","130","57","85","17","17","0",""
"null","null","clear_screen","canvas-keyboard-response","398","1098778","0.0-11.0-1.193","110","2022-3-28","12:49:33","1","19","[""White""]","No","Male","1412522","","","","","","","","130","57","85","17","17","",""
"2120","8","rating","canvas-keyboard-response","399","1100909","0.0-11.0-0.194","110","2022-3-28","12:49:33","1","19","[""White""]","No","Male","1412522","","","","","","","","120","30","30","17","33","1",""
"null","null","clear_screen","canvas-keyboard-response","400","1101170","0.0-11.0-1.194","110","2022-3-28","12:49:33","1","19","[""White""]","No","Male","1412522","","","","","","","","120","30","30","17","33","",""
"2130","6","rating","canvas-keyboard-response","401","1103309","0.0-11.0-0.195","110","2022-3-28","12:49:33","1","19","[""White""]","No","Male","1412522","","","","","","","","56","85","57","10","25","0",""
"null","null","clear_screen","canvas-keyboard-response","402","1103568","0.0-11.0-1.195","110","2022-3-28","12:49:33","1","19","[""White""]","No","Male","1412522","","","","","","","","56","85","57","10","25","",""
"2033","8","rating","canvas-keyboard-response","403","1105613","0.0-11.0-0.196","110","2022-3-28","12:49:33","1","19","[""White""]","No","Male","1412522","","","","","","","","139","57","57","17","33","1",""
"null","null","clear_screen","canvas-keyboard-response","404","1105874","0.0-11.0-1.196","110","2022-3-28","12:49:33","1","19","[""White""]","No","Male","1412522","","","","","","","","139","57","57","17","33","",""
"4013","2","rating","canvas-keyboard-response","405","1109902","0.0-11.0-0.197","110","2022-3-28","12:49:33","1","19","[""White""]","No","Male","1412522","","","","","","","","103","140","85","10","33","0",""
"null","null","clear_screen","canvas-keyboard-response","406","1110165","0.0-11.0-1.197","110","2022-3-28","12:49:33","1","19","[""White""]","No","Male","1412522","","","","","","","","103","140","85","10","33","",""
"2105","6","rating","canvas-keyboard-response","407","1112285","0.0-11.0-0.198","110","2022-3-28","12:49:33","1","19","[""White""]","No","Male","1412522","","","","","","","","229","85","140","25","33","1",""
"null","null","clear_screen","canvas-keyboard-response","408","1112545","0.0-11.0-1.198","110","2022-3-28","12:49:33","1","19","[""White""]","No","Male","1412522","","","","","","","","229","85","140","25","33","",""
"3136","2","rating","canvas-keyboard-response","409","1115694","0.0-11.0-0.199","110","2022-3-28","12:49:33","1","19","[""White""]","No","Male","1412522","","","","","","","","171","113","30","17","33","1",""
"null","null","clear_screen","canvas-keyboard-response","410","1115954","0.0-11.0-1.199","110","2022-3-28","12:49:33","1","19","[""White""]","No","Male","1412522","","","","","","","","171","113","30","17","33","",""
"1927","2","rating","canvas-keyboard-response","411","1117893","0.0-11.0-0.200","110","2022-3-28","12:49:33","1","19","[""White""]","No","Male","1412522","","","","","","","","38","57","30","10","33","0",""
"null","null","clear_screen","canvas-keyboard-response","412","1118154","0.0-11.0-1.200","110","2022-3-28","12:49:33","1","19","[""White""]","No","Male","1412522","","","","","","","","38","57","30","10","33","",""
"1972","1","rating","canvas-keyboard-response","413","1120141","0.0-11.0-0.201","110","2022-3-28","12:49:33","1","19","[""White""]","No","Male","1412522","","","","","","","","124","30","140","17","33","1",""
"null","null","clear_screen","canvas-keyboard-response","414","1120401","0.0-11.0-1.201","110","2022-3-28","12:49:33","1","19","[""White""]","No","Male","1412522","","","","","","","","124","30","140","17","33","",""
"2500","4","rating","canvas-keyboard-response","415","1122918","0.0-11.0-0.202","110","2022-3-28","12:49:33","1","19","[""White""]","No","Male","1412522","","","","","","","","27","57","140","10","10","1",""
"null","null","clear_screen","canvas-keyboard-response","416","1123178","0.0-11.0-1.202","110","2022-3-28","12:49:33","1","19","[""White""]","No","Male","1412522","","","","","","","","27","57","140","10","10","",""
"1972","7","rating","canvas-keyboard-response","417","1125164","0.0-11.0-0.203","110","2022-3-28","12:49:33","1","19","[""White""]","No","Male","1412522","","","","","","","","232","85","85","25","40","0",""
"null","null","clear_screen","canvas-keyboard-response","418","1125426","0.0-11.0-1.203","110","2022-3-28","12:49:33","1","19","[""White""]","No","Male","1412522","","","","","","","","232","85","85","25","40","",""
"5581","5","rating","canvas-keyboard-response","419","1131020","0.0-11.0-0.204","110","2022-3-28","12:49:33","1","19","[""White""]","No","Male","1412522","","","","","","","","188","140","85","17","33","0",""
"null","null","clear_screen","canvas-keyboard-response","420","1131282","0.0-11.0-1.204","110","2022-3-28","12:49:33","1","19","[""White""]","No","Male","1412522","","","","","","","","188","140","85","17","33","",""
"2382","8","rating","canvas-keyboard-response","421","1133677","0.0-11.0-0.205","110","2022-3-28","12:49:33","1","19","[""White""]","No","Male","1412522","","","","","","","","219","57","57","25","40","1",""
"null","null","clear_screen","canvas-keyboard-response","422","1133937","0.0-11.0-1.205","110","2022-3-28","12:49:33","1","19","[""White""]","No","Male","1412522","","","","","","","","219","57","57","25","40","",""
"2966","3","rating","canvas-keyboard-response","423","1136917","0.0-11.0-0.206","110","2022-3-28","12:49:33","1","19","[""White""]","No","Male","1412522","","","","","","","","18","30","113","10","33","0",""
"null","null","clear_screen","canvas-keyboard-response","424","1137178","0.0-11.0-1.206","110","2022-3-28","12:49:33","1","19","[""White""]","No","Male","1412522","","","","","","","","18","30","113","10","33","",""
"2344","5","rating","canvas-keyboard-response","425","1139532","0.0-11.0-0.207","110","2022-3-28","12:49:33","1","19","[""White""]","No","Male","1412522","","","","","","","","248","140","85","25","33","1",""
"null","null","clear_screen","canvas-keyboard-response","426","1139793","0.0-11.0-1.207","110","2022-3-28","12:49:33","1","19","[""White""]","No","Male","1412522","","","","","","","","248","140","85","25","33","",""
"1429","8","rating","canvas-keyboard-response","427","1141236","0.0-11.0-0.208","110","2022-3-28","12:49:33","1","19","[""White""]","No","Male","1412522","","","","","","","","134","57","57","17","25","1",""
"null","null","clear_screen","canvas-keyboard-response","428","1141495","0.0-11.0-1.208","110","2022-3-28","12:49:33","1","19","[""White""]","No","Male","1412522","","","","","","","","134","57","57","17","25","",""
"4304","5","rating","canvas-keyboard-response","429","1145813","0.0-11.0-0.209","110","2022-3-28","12:49:33","1","19","[""White""]","No","Male","1412522","","","","","","","","296","57","113","40","40","0",""
"null","null","clear_screen","canvas-keyboard-response","430","1146071","0.0-11.0-1.209","110","2022-3-28","12:49:33","1","19","[""White""]","No","Male","1412522","","","","","","","","296","57","113","40","40","",""
"2098","3","rating","canvas-keyboard-response","431","1148181","0.0-11.0-0.210","110","2022-3-28","12:49:33","1","19","[""White""]","No","Male","1412522","","","","","","","","64","85","140","10","33","1",""
"null","null","clear_screen","canvas-keyboard-response","432","1148440","0.0-11.0-1.210","110","2022-3-28","12:49:33","1","19","[""White""]","No","Male","1412522","","","","","","","","64","85","140","10","33","",""
"3330","3","rating","canvas-keyboard-response","433","1151781","0.0-11.0-0.211","110","2022-3-28","12:49:33","1","19","[""White""]","No","Male","1412522","","","","","","","","47","57","140","10","40","1",""
"null","null","clear_screen","canvas-keyboard-response","434","1152040","0.0-11.0-1.211","110","2022-3-28","12:49:33","1","19","[""White""]","No","Male","1412522","","","","","","","","47","57","140","10","40","",""
"2928","5","rating","canvas-keyboard-response","435","1154980","0.0-11.0-0.212","110","2022-3-28","12:49:33","1","19","[""White""]","No","Male","1412522","","","","","","","","63","85","113","10","33","0",""
"null","null","clear_screen","canvas-keyboard-response","436","1155242","0.0-11.0-1.212","110","2022-3-28","12:49:33","1","19","[""White""]","No","Male","1412522","","","","","","","","63","85","113","10","33","",""
"2255","5","rating","canvas-keyboard-response","437","1157508","0.0-11.0-0.213","110","2022-3-28","12:49:33","1","19","[""White""]","No","Male","1412522","","","","","","","","158","85","113","17","33","1",""
"null","null","clear_screen","canvas-keyboard-response","438","1157770","0.0-11.0-1.213","110","2022-3-28","12:49:33","1","19","[""White""]","No","Male","1412522","","","","","","","","158","85","113","17","33","",""
"1856","2","rating","canvas-keyboard-response","439","1159637","0.0-11.0-0.214","110","2022-3-28","12:49:33","1","19","[""White""]","No","Male","1412522","","","","","","","","102","140","57","10","33","1",""
"null","null","clear_screen","canvas-keyboard-response","440","1159897","0.0-11.0-1.214","110","2022-3-28","12:49:33","1","19","[""White""]","No","Male","1412522","","","","","","","","102","140","57","10","33","",""
"2742","6","rating","canvas-keyboard-response","441","1162654","0.0-11.0-0.215","110","2022-3-28","12:49:33","1","19","[""White""]","No","Male","1412522","","","","","","","","202","30","85","25","33","0",""
"null","null","clear_screen","canvas-keyboard-response","442","1162918","0.0-11.0-1.215","110","2022-3-28","12:49:33","1","19","[""White""]","No","Male","1412522","","","","","","","","202","30","85","25","33","",""
"1649","7","rating","canvas-keyboard-response","443","1164581","0.0-11.0-0.216","110","2022-3-28","12:49:33","1","19","[""White""]","No","Male","1412522","","","","","","","","133","57","30","17","25","1",""
"null","null","clear_screen","canvas-keyboard-response","444","1164842","0.0-11.0-1.216","110","2022-3-28","12:49:33","1","19","[""White""]","No","Male","1412522","","","","","","","","133","57","30","17","25","",""
"1709","9","rating","canvas-keyboard-response","445","1166565","0.0-11.0-0.217","110","2022-3-28","12:49:33","1","19","[""White""]","No","Male","1412522","","","","","","","","256","30","57","33","33","0",""
"null","null","clear_screen","canvas-keyboard-response","446","1166827","0.0-11.0-1.217","110","2022-3-28","12:49:33","1","19","[""White""]","No","Male","1412522","","","","","","","","256","30","57","33","33","",""
"1914","8","rating","canvas-keyboard-response","447","1168757","0.0-11.0-0.218","110","2022-3-28","12:49:33","1","19","[""White""]","No","Male","1412522","","","","","","","","180","113","140","17","40","0",""
"null","null","clear_screen","canvas-keyboard-response","448","1169018","0.0-11.0-1.218","110","2022-3-28","12:49:33","1","19","[""White""]","No","Male","1412522","","","","","","","","180","113","140","17","40","",""
"2125","7","rating","canvas-keyboard-response","449","1171157","0.0-11.0-0.219","110","2022-3-28","12:49:33","1","19","[""White""]","No","Male","1412522","","","","","","","","138","57","30","17","33","1",""
"null","null","clear_screen","canvas-keyboard-response","450","1171418","0.0-11.0-1.219","110","2022-3-28","12:49:33","1","19","[""White""]","No","Male","1412522","","","","","","","","138","57","30","17","33","",""
"1198","9","rating","canvas-keyboard-response","451","1172630","0.0-11.0-0.220","110","2022-3-28","12:49:33","1","19","[""White""]","No","Male","1412522","","","","","","","","169","113","113","17","25","0",""
"null","null","clear_screen","canvas-keyboard-response","452","1172890","0.0-11.0-1.220","110","2022-3-28","12:49:33","1","19","[""White""]","No","Male","1412522","","","","","","","","169","113","113","17","25","",""
"1847","8","rating","canvas-keyboard-response","453","1174749","0.0-11.0-0.221","110","2022-3-28","12:49:33","1","19","[""White""]","No","Male","1412522","","","","","","","","57","85","85","10","25","0",""
"null","null","clear_screen","canvas-keyboard-response","454","1175010","0.0-11.0-1.221","110","2022-3-28","12:49:33","1","19","[""White""]","No","Male","1412522","","","","","","","","57","85","85","10","25","",""
"2003","7","rating","canvas-keyboard-response","455","1177028","0.0-11.0-0.222","110","2022-3-28","12:49:33","1","19","[""White""]","No","Male","1412522","","","","","","","","274","85","140","33","33","0",""
"null","null","clear_screen","canvas-keyboard-response","456","1177288","0.0-11.0-1.222","110","2022-3-28","12:49:33","1","19","[""White""]","No","Male","1412522","","","","","","","","274","85","140","33","33","",""
"2109","4","rating","canvas-keyboard-response","457","1179413","0.0-11.0-0.223","110","2022-3-28","12:49:33","1","19","[""White""]","No","Male","1412522","","","","","","","","9","30","140","10","17","1",""
"null","null","clear_screen","canvas-keyboard-response","458","1179674","0.0-11.0-1.223","110","2022-3-28","12:49:33","1","19","[""White""]","No","Male","1412522","","","","","","","","9","30","140","10","17","",""
"3442","8","rating","canvas-keyboard-response","459","1183125","0.0-11.0-0.224","110","2022-3-28","12:49:33","1","19","[""White""]","No","Male","1412522","","","","","","","","25","57","85","10","10","0",""
"null","null","clear_screen","canvas-keyboard-response","460","1183386","0.0-11.0-1.224","110","2022-3-28","12:49:33","1","19","[""White""]","No","Male","1412522","","","","","","","","25","57","85","10","10","",""
"2855","5","rating","canvas-keyboard-response","461","1186254","0.0-11.0-0.225","110","2022-3-28","12:49:33","1","19","[""White""]","No","Male","1412522","","","","","","","","258","30","113","33","33","0",""
"null","null","clear_screen","canvas-keyboard-response","462","1186512","0.0-11.0-1.225","110","2022-3-28","12:49:33","1","19","[""White""]","No","Male","1412522","","","","","","","","258","30","113","33","33","",""
"1559","7","rating","canvas-keyboard-response","463","1188084","0.0-11.0-0.226","110","2022-3-28","12:49:33","1","19","[""White""]","No","Male","1412522","","","","","","","","291","30","57","40","40","0",""
"null","null","clear_screen","canvas-keyboard-response","464","1188346","0.0-11.0-1.226","110","2022-3-28","12:49:33","1","19","[""White""]","No","Male","1412522","","","","","","","","291","30","57","40","40","",""
"1881","8","rating","canvas-keyboard-response","465","1190236","0.0-11.0-0.227","110","2022-3-28","12:49:33","1","19","[""White""]","No","Male","1412522","","","","","","","","201","30","57","25","33","1",""
"null","null","clear_screen","canvas-keyboard-response","466","1190497","0.0-11.0-1.227","110","2022-3-28","12:49:33","1","19","[""White""]","No","Male","1412522","","","","","","","","201","30","57","25","33","",""
