"rt","response","trialType","trial_type","trial_index","time_elapsed","internal_node_id","sub_n","date","time","leftRight","age","race","ethnicity","gender","exp_duration","success","timeout","failed_images","failed_audio","failed_video","stimulus","view_history","trialID","radius_a","radius_b","angle_a","angle_b","lrCond","question_order"
"2710","{""response"":""118""}","enter-sub-number","survey-html-form","0","2720","0.0-0.0","118","2022-4-7","9:37:5","1","20","[""White""]","No","Female","1245960","","","","","","","","","","","","","",""
"","","","fullscreen","1","4486","0.0-1.0","118","2022-4-7","9:37:5","1","20","[""White""]","No","Female","1245960","true","","","","","","","","","","","","",""
"","","","preload","2","4501","0.0-2.0","118","2022-4-7","9:37:5","1","20","[""White""]","No","Female","1245960","true","false","[]","[]","[]","","","","","","","","",""
"65999","0","","html-button-response","3","70502","0.0-3.0","118","2022-4-7","9:37:5","1","20","[""White""]","No","Female","1245960","","","","","","<div style= ""font-size:25px;"" <p> <strong> Welcome to the experiment! </strong><br> <p style=""color:#8B0000; font-size:25px;""><strong> Please do NOT exit full screen until you are done with the experiment. </strong> </p><p style=""font-size:25px;color:#8B0000;""> <strong> The experiment will be canceled and your data will be lost <br> if you try to go back or refresh the page at any point during the experiment.</strong> </p><br><p> <strong> Thanks in advance for your contribution to our research! </strong></p>","","","","","","","",""
"64490","","","instructions","4","134999","0.0-4.0","118","2022-4-7","9:37:5","1","20","[""White""]","No","Female","1245960","","","","","","","[{""page_index"":0,""viewing_time"":37073},{""page_index"":1,""viewing_time"":11784},{""page_index"":2,""viewing_time"":15633}]","","","","","","",""
"null","null","presentPop","canvas-keyboard-response","5","151012","0.0-5.0","118","2022-4-7","9:37:5","1","20","[""White""]","No","Female","1245960","","","","","","","","","","","","","",""
"null","null","clear_screen","canvas-keyboard-response","6","151777","0.0-6.0","118","2022-4-7","9:37:5","1","20","[""White""]","No","Female","1245960","","","","","","","","","","","","","",""
"3442","","","instructions","7","155221","0.0-7.0","118","2022-4-7","9:37:5","1","20","[""White""]","No","Female","1245960","","","","","","","[{""page_index"":0,""viewing_time"":3442}]","","","","","","",""
"null","null","presentPop","canvas-keyboard-response","8","171235","0.0-8.0","118","2022-4-7","9:37:5","1","20","[""White""]","No","Female","1245960","","","","","","","","","","","","","",""
"null","null","clear_screen","canvas-keyboard-response","9","171994","0.0-9.0","118","2022-4-7","9:37:5","1","20","[""White""]","No","Female","1245960","","","","","","","","","","","","","",""
"14353","","","instructions","10","186350","0.0-10.0","118","2022-4-7","9:37:5","1","20","[""White""]","No","Female","1245960","","","","","","","[{""page_index"":0,""viewing_time"":6608},{""page_index"":1,""viewing_time"":7743}]","","","","","","",""
"12113","6","rating","canvas-keyboard-response","11","199477","0.0-11.0-0.0","118","2022-4-7","9:37:5","1","20","[""White""]","No","Female","1245960","","","","","","","","217","57","140","25","33","0",""
"null","null","clear_screen","canvas-keyboard-response","12","199737","0.0-11.0-1.0","118","2022-4-7","9:37:5","1","20","[""White""]","No","Female","1245960","","","","","","","","217","57","140","25","33","",""
"10030","5","rating","canvas-keyboard-response","13","209782","0.0-11.0-0.1","118","2022-4-7","9:37:5","1","20","[""White""]","No","Female","1245960","","","","","","","","39","57","57","10","33","1",""
"null","null","clear_screen","canvas-keyboard-response","14","210042","0.0-11.0-1.1","118","2022-4-7","9:37:5","1","20","[""White""]","No","Female","1245960","","","","","","","","39","57","57","10","33","",""
"9579","9","rating","canvas-keyboard-response","15","219639","0.0-11.0-0.2","118","2022-4-7","9:37:5","1","20","[""White""]","No","Female","1245960","","","","","","","","107","140","57","10","40","1",""
"null","null","clear_screen","canvas-keyboard-response","16","219901","0.0-11.0-1.2","118","2022-4-7","9:37:5","1","20","[""White""]","No","Female","1245960","","","","","","","","107","140","57","10","40","",""
"6220","1","rating","canvas-keyboard-response","17","226134","0.0-11.0-0.3","118","2022-4-7","9:37:5","1","20","[""White""]","No","Female","1245960","","","","","","","","186","140","30","17","33","0",""
"null","null","clear_screen","canvas-keyboard-response","18","226396","0.0-11.0-1.3","118","2022-4-7","9:37:5","1","20","[""White""]","No","Female","1245960","","","","","","","","186","140","30","17","33","",""
"10861","4","rating","canvas-keyboard-response","19","237270","0.0-11.0-0.4","118","2022-4-7","9:37:5","1","20","[""White""]","No","Female","1245960","","","","","","","","228","85","113","25","33","0",""
"null","null","clear_screen","canvas-keyboard-response","20","237528","0.0-11.0-1.4","118","2022-4-7","9:37:5","1","20","[""White""]","No","Female","1245960","","","","","","","","228","85","113","25","33","",""
"2262","1","rating","canvas-keyboard-response","21","239806","0.0-11.0-0.5","118","2022-4-7","9:37:5","1","20","[""White""]","No","Female","1245960","","","","","","","","286","140","30","33","40","1",""
"null","null","clear_screen","canvas-keyboard-response","22","240064","0.0-11.0-1.5","118","2022-4-7","9:37:5","1","20","[""White""]","No","Female","1245960","","","","","","","","286","140","30","33","40","",""
"5133","6","rating","canvas-keyboard-response","23","245213","0.0-11.0-0.6","118","2022-4-7","9:37:5","1","20","[""White""]","No","Female","1245960","","","","","","","","273","85","113","33","33","0",""
"null","null","clear_screen","canvas-keyboard-response","24","245472","0.0-11.0-1.6","118","2022-4-7","9:37:5","1","20","[""White""]","No","Female","1245960","","","","","","","","273","85","113","33","33","",""
"5748","4","rating","canvas-keyboard-response","25","251231","0.0-11.0-0.7","118","2022-4-7","9:37:5","1","20","[""White""]","No","Female","1245960","","","","","","","","265","57","85","33","33","0",""
"null","null","clear_screen","canvas-keyboard-response","26","251490","0.0-11.0-1.7","118","2022-4-7","9:37:5","1","20","[""White""]","No","Female","1245960","","","","","","","","265","57","85","33","33","",""
"15009","1","rating","canvas-keyboard-response","27","266510","0.0-11.0-0.8","118","2022-4-7","9:37:5","1","20","[""White""]","No","Female","1245960","","","","","","","","69","85","140","10","40","0",""
"null","null","clear_screen","canvas-keyboard-response","28","266770","0.0-11.0-1.8","118","2022-4-7","9:37:5","1","20","[""White""]","No","Female","1245960","","","","","","","","69","85","140","10","40","",""
"4344","2","rating","canvas-keyboard-response","29","271126","0.0-11.0-0.9","118","2022-4-7","9:37:5","1","20","[""White""]","No","Female","1245960","","","","","","","","253","140","85","25","40","1",""
"null","null","clear_screen","canvas-keyboard-response","30","271385","0.0-11.0-1.9","118","2022-4-7","9:37:5","1","20","[""White""]","No","Female","1245960","","","","","","","","253","140","85","25","40","",""
"2800","1","rating","canvas-keyboard-response","31","274198","0.0-11.0-0.10","118","2022-4-7","9:37:5","1","20","[""White""]","No","Female","1245960","","","","","","","","224","85","140","25","25","0",""
"null","null","clear_screen","canvas-keyboard-response","32","274458","0.0-11.0-1.10","118","2022-4-7","9:37:5","1","20","[""White""]","No","Female","1245960","","","","","","","","224","85","140","25","25","",""
"2114","1","rating","canvas-keyboard-response","33","276590","0.0-11.0-0.11","118","2022-4-7","9:37:5","1","20","[""White""]","No","Female","1245960","","","","","","","","129","30","140","17","40","1",""
"null","null","clear_screen","canvas-keyboard-response","34","276848","0.0-11.0-1.11","118","2022-4-7","9:37:5","1","20","[""White""]","No","Female","1245960","","","","","","","","129","30","140","17","40","",""
"4447","2","rating","canvas-keyboard-response","35","281309","0.0-11.0-0.12","118","2022-4-7","9:37:5","1","20","[""White""]","No","Female","1245960","","","","","","","","122","30","85","17","33","0",""
"null","null","clear_screen","canvas-keyboard-response","36","281569","0.0-11.0-1.12","118","2022-4-7","9:37:5","1","20","[""White""]","No","Female","1245960","","","","","","","","122","30","85","17","33","",""
"3651","3","rating","canvas-keyboard-response","37","285230","0.0-11.0-0.13","118","2022-4-7","9:37:5","1","20","[""White""]","No","Female","1245960","","","","","","","","28","57","30","10","17","1",""
"null","null","clear_screen","canvas-keyboard-response","38","285491","0.0-11.0-1.13","118","2022-4-7","9:37:5","1","20","[""White""]","No","Female","1245960","","","","","","","","28","57","30","10","17","",""
"5261","3","rating","canvas-keyboard-response","39","290766","0.0-11.0-0.14","118","2022-4-7","9:37:5","1","20","[""White""]","No","Female","1245960","","","","","","","","225","85","30","25","33","0",""
"null","null","clear_screen","canvas-keyboard-response","40","291026","0.0-11.0-1.14","118","2022-4-7","9:37:5","1","20","[""White""]","No","Female","1245960","","","","","","","","225","85","30","25","33","",""
"6510","6","rating","canvas-keyboard-response","41","297549","0.0-11.0-0.15","118","2022-4-7","9:37:5","1","20","[""White""]","No","Female","1245960","","","","","","","","75","113","140","10","17","0",""
"null","null","clear_screen","canvas-keyboard-response","42","297810","0.0-11.0-1.15","118","2022-4-7","9:37:5","1","20","[""White""]","No","Female","1245960","","","","","","","","75","113","140","10","17","",""
"6251","2","rating","canvas-keyboard-response","43","304069","0.0-11.0-0.16","118","2022-4-7","9:37:5","1","20","[""White""]","No","Female","1245960","","","","","","","","146","57","113","17","40","0",""
"null","null","clear_screen","canvas-keyboard-response","44","304328","0.0-11.0-1.16","118","2022-4-7","9:37:5","1","20","[""White""]","No","Female","1245960","","","","","","","","146","57","113","17","40","",""
"2621","9","rating","canvas-keyboard-response","45","306965","0.0-11.0-0.17","118","2022-4-7","9:37:5","1","20","[""White""]","No","Female","1245960","","","","","","","","95","140","140","10","17","1",""
"null","null","clear_screen","canvas-keyboard-response","46","307226","0.0-11.0-1.17","118","2022-4-7","9:37:5","1","20","[""White""]","No","Female","1245960","","","","","","","","95","140","140","10","17","",""
"3721","7","rating","canvas-keyboard-response","47","310957","0.0-11.0-0.18","118","2022-4-7","9:37:5","1","20","[""White""]","No","Female","1245960","","","","","","","","105","140","140","10","33","1",""
"null","null","clear_screen","canvas-keyboard-response","48","311215","0.0-11.0-1.18","118","2022-4-7","9:37:5","1","20","[""White""]","No","Female","1245960","","","","","","","","105","140","140","10","33","",""
"5937","6","rating","canvas-keyboard-response","49","317166","0.0-11.0-0.19","118","2022-4-7","9:37:5","1","20","[""White""]","No","Female","1245960","","","","","","","","34","57","57","10","25","1",""
"null","null","clear_screen","canvas-keyboard-response","50","317429","0.0-11.0-1.19","118","2022-4-7","9:37:5","1","20","[""White""]","No","Female","1245960","","","","","","","","34","57","57","10","25","",""
"3626","7","rating","canvas-keyboard-response","51","321070","0.0-11.0-0.20","118","2022-4-7","9:37:5","1","20","[""White""]","No","Female","1245960","","","","","","","","285","113","140","33","40","0",""
"null","null","clear_screen","canvas-keyboard-response","52","321330","0.0-11.0-1.20","118","2022-4-7","9:37:5","1","20","[""White""]","No","Female","1245960","","","","","","","","285","113","140","33","40","",""
"3272","2","rating","canvas-keyboard-response","53","324614","0.0-11.0-0.21","118","2022-4-7","9:37:5","1","20","[""White""]","No","Female","1245960","","","","","","","","208","30","113","25","40","0",""
"null","null","clear_screen","canvas-keyboard-response","54","324873","0.0-11.0-1.21","118","2022-4-7","9:37:5","1","20","[""White""]","No","Female","1245960","","","","","","","","208","30","113","25","40","",""
"7697","6","rating","canvas-keyboard-response","55","332582","0.0-11.0-0.22","118","2022-4-7","9:37:5","1","20","[""White""]","No","Female","1245960","","","","","","","","151","85","57","17","25","1",""
"null","null","clear_screen","canvas-keyboard-response","56","332841","0.0-11.0-1.22","118","2022-4-7","9:37:5","1","20","[""White""]","No","Female","1245960","","","","","","","","151","85","57","17","25","",""
"3752","7","rating","canvas-keyboard-response","57","336606","0.0-11.0-0.23","118","2022-4-7","9:37:5","1","20","[""White""]","No","Female","1245960","","","","","","","","218","57","30","25","40","0",""
"null","null","clear_screen","canvas-keyboard-response","58","336865","0.0-11.0-1.23","118","2022-4-7","9:37:5","1","20","[""White""]","No","Female","1245960","","","","","","","","218","57","30","25","40","",""
"3574","8","rating","canvas-keyboard-response","59","340454","0.0-11.0-0.24","118","2022-4-7","9:37:5","1","20","[""White""]","No","Female","1245960","","","","","","","","255","140","140","25","40","1",""
"null","null","clear_screen","canvas-keyboard-response","60","340713","0.0-11.0-1.24","118","2022-4-7","9:37:5","1","20","[""White""]","No","Female","1245960","","","","","","","","255","140","140","25","40","",""
"8256","4","rating","canvas-keyboard-response","61","348981","0.0-11.0-0.25","118","2022-4-7","9:37:5","1","20","[""White""]","No","Female","1245960","","","","","","","","279","85","140","33","40","0",""
"null","null","clear_screen","canvas-keyboard-response","62","349242","0.0-11.0-1.25","118","2022-4-7","9:37:5","1","20","[""White""]","No","Female","1245960","","","","","","","","279","85","140","33","40","",""
"1528","3","rating","canvas-keyboard-response","63","350781","0.0-11.0-0.26","118","2022-4-7","9:37:5","1","20","[""White""]","No","Female","1245960","","","","","","","","113","30","113","17","17","0",""
"null","null","clear_screen","canvas-keyboard-response","64","351043","0.0-11.0-1.26","118","2022-4-7","9:37:5","1","20","[""White""]","No","Female","1245960","","","","","","","","113","30","113","17","17","",""
"2484","9","rating","canvas-keyboard-response","65","353542","0.0-11.0-0.27","118","2022-4-7","9:37:5","1","20","[""White""]","No","Female","1245960","","","","","","","","277","85","85","33","40","1",""
"null","null","clear_screen","canvas-keyboard-response","66","353804","0.0-11.0-1.27","118","2022-4-7","9:37:5","1","20","[""White""]","No","Female","1245960","","","","","","","","277","85","85","33","40","",""
"1855","7","rating","canvas-keyboard-response","67","355670","0.0-11.0-0.28","118","2022-4-7","9:37:5","1","20","[""White""]","No","Female","1245960","","","","","","","","280","113","140","33","33","0",""
"null","null","clear_screen","canvas-keyboard-response","68","355930","0.0-11.0-1.28","118","2022-4-7","9:37:5","1","20","[""White""]","No","Female","1245960","","","","","","","","280","113","140","33","33","",""
"2137","8","rating","canvas-keyboard-response","69","358078","0.0-11.0-0.29","118","2022-4-7","9:37:5","1","20","[""White""]","No","Female","1245960","","","","","","","","184","140","113","17","25","0",""
"null","null","clear_screen","canvas-keyboard-response","70","358337","0.0-11.0-1.29","118","2022-4-7","9:37:5","1","20","[""White""]","No","Female","1245960","","","","","","","","184","140","113","17","25","",""
"1790","1","rating","canvas-keyboard-response","71","360141","0.0-11.0-0.30","118","2022-4-7","9:37:5","1","20","[""White""]","No","Female","1245960","","","","","","","","14","30","140","10","25","1",""
"null","null","clear_screen","canvas-keyboard-response","72","360404","0.0-11.0-1.30","118","2022-4-7","9:37:5","1","20","[""White""]","No","Female","1245960","","","","","","","","14","30","140","10","25","",""
"6894","2","rating","canvas-keyboard-response","73","367309","0.0-11.0-0.31","118","2022-4-7","9:37:5","1","20","[""White""]","No","Female","1245960","","","","","","","","27","57","140","10","10","0",""
"null","null","clear_screen","canvas-keyboard-response","74","367571","0.0-11.0-1.31","118","2022-4-7","9:37:5","1","20","[""White""]","No","Female","1245960","","","","","","","","27","57","140","10","10","",""
"2746","4","rating","canvas-keyboard-response","75","370332","0.0-11.0-0.32","118","2022-4-7","9:37:5","1","20","[""White""]","No","Female","1245960","","","","","","","","88","113","85","10","40","0",""
"null","null","clear_screen","canvas-keyboard-response","76","370592","0.0-11.0-1.32","118","2022-4-7","9:37:5","1","20","[""White""]","No","Female","1245960","","","","","","","","88","113","85","10","40","",""
"2288","2","rating","canvas-keyboard-response","77","372893","0.0-11.0-0.33","118","2022-4-7","9:37:5","1","20","[""White""]","No","Female","1245960","","","","","","","","143","57","30","17","40","0",""
"null","null","clear_screen","canvas-keyboard-response","78","373153","0.0-11.0-1.33","118","2022-4-7","9:37:5","1","20","[""White""]","No","Female","1245960","","","","","","","","143","57","30","17","40","",""
"1259","2","rating","canvas-keyboard-response","79","374421","0.0-11.0-0.34","118","2022-4-7","9:37:5","1","20","[""White""]","No","Female","1245960","","","","","","","","275","85","30","33","40","0",""
"null","null","clear_screen","canvas-keyboard-response","80","374679","0.0-11.0-1.34","118","2022-4-7","9:37:5","1","20","[""White""]","No","Female","1245960","","","","","","","","275","85","30","33","40","",""
"4516","4","rating","canvas-keyboard-response","81","379205","0.0-11.0-0.35","118","2022-4-7","9:37:5","1","20","[""White""]","No","Female","1245960","","","","","","","","156","85","57","17","33","0",""
"null","null","clear_screen","canvas-keyboard-response","82","379462","0.0-11.0-1.35","118","2022-4-7","9:37:5","1","20","[""White""]","No","Female","1245960","","","","","","","","156","85","57","17","33","",""
"1591","2","rating","canvas-keyboard-response","83","381069","0.0-11.0-0.36","118","2022-4-7","9:37:5","1","20","[""White""]","No","Female","1245960","","","","","","","","167","113","57","17","25","1",""
"null","null","clear_screen","canvas-keyboard-response","84","381329","0.0-11.0-1.36","118","2022-4-7","9:37:5","1","20","[""White""]","No","Female","1245960","","","","","","","","167","113","57","17","25","",""
"1905","2","rating","canvas-keyboard-response","85","383245","0.0-11.0-0.37","118","2022-4-7","9:37:5","1","20","[""White""]","No","Female","1245960","","","","","","","","212","57","140","25","25","0",""
"null","null","clear_screen","canvas-keyboard-response","86","383504","0.0-11.0-1.37","118","2022-4-7","9:37:5","1","20","[""White""]","No","Female","1245960","","","","","","","","212","57","140","25","25","",""
"2354","2","rating","canvas-keyboard-response","87","385869","0.0-11.0-0.38","118","2022-4-7","9:37:5","1","20","[""White""]","No","Female","1245960","","","","","","","","45","57","85","10","40","1",""
"null","null","clear_screen","canvas-keyboard-response","88","386129","0.0-11.0-1.38","118","2022-4-7","9:37:5","1","20","[""White""]","No","Female","1245960","","","","","","","","45","57","85","10","40","",""
"1155","2","rating","canvas-keyboard-response","89","387293","0.0-11.0-0.39","118","2022-4-7","9:37:5","1","20","[""White""]","No","Female","1245960","","","","","","","","124","30","140","17","33","1",""
"null","null","clear_screen","canvas-keyboard-response","90","387551","0.0-11.0-1.39","118","2022-4-7","9:37:5","1","20","[""White""]","No","Female","1245960","","","","","","","","124","30","140","17","33","",""
"2954","8","rating","canvas-keyboard-response","91","390516","0.0-11.0-0.40","118","2022-4-7","9:37:5","1","20","[""White""]","No","Female","1245960","","","","","","","","174","113","113","17","33","1",""
"null","null","clear_screen","canvas-keyboard-response","92","390777","0.0-11.0-1.40","118","2022-4-7","9:37:5","1","20","[""White""]","No","Female","1245960","","","","","","","","174","113","113","17","33","",""
"8225","7","rating","canvas-keyboard-response","93","399013","0.0-11.0-0.41","118","2022-4-7","9:37:5","1","20","[""White""]","No","Female","1245960","","","","","","","","85","113","140","10","33","1",""
"null","null","clear_screen","canvas-keyboard-response","94","399275","0.0-11.0-1.41","118","2022-4-7","9:37:5","1","20","[""White""]","No","Female","1245960","","","","","","","","85","113","140","10","33","",""
"1757","2","rating","canvas-keyboard-response","95","401045","0.0-11.0-0.42","118","2022-4-7","9:37:5","1","20","[""White""]","No","Female","1245960","","","","","","","","86","113","30","10","40","1",""
"null","null","clear_screen","canvas-keyboard-response","96","401306","0.0-11.0-1.42","118","2022-4-7","9:37:5","1","20","[""White""]","No","Female","1245960","","","","","","","","86","113","30","10","40","",""
"3428","5","rating","canvas-keyboard-response","97","404749","0.0-11.0-0.43","118","2022-4-7","9:37:5","1","20","[""White""]","No","Female","1245960","","","","","","","","242","113","57","25","40","0",""
"null","null","clear_screen","canvas-keyboard-response","98","405011","0.0-11.0-1.43","118","2022-4-7","9:37:5","1","20","[""White""]","No","Female","1245960","","","","","","","","242","113","57","25","40","",""
"4112","2","rating","canvas-keyboard-response","99","409133","0.0-11.0-0.44","118","2022-4-7","9:37:5","1","20","[""White""]","No","Female","1245960","","","","","","","","117","30","85","17","25","0",""
"null","null","clear_screen","canvas-keyboard-response","100","409391","0.0-11.0-1.44","118","2022-4-7","9:37:5","1","20","[""White""]","No","Female","1245960","","","","","","","","117","30","85","17","25","",""
"4956","7","rating","canvas-keyboard-response","101","414357","0.0-11.0-0.45","118","2022-4-7","9:37:5","1","20","[""White""]","No","Female","1245960","","","","","","","","295","57","85","40","40","1",""
"null","null","clear_screen","canvas-keyboard-response","102","414617","0.0-11.0-1.45","118","2022-4-7","9:37:5","1","20","[""White""]","No","Female","1245960","","","","","","","","295","57","85","40","40","",""
"28999","5","rating","canvas-keyboard-response","103","443630","0.0-11.0-0.46","118","2022-4-7","9:37:5","1","20","[""White""]","No","Female","1245960","","","","","","","","173","113","85","17","33","1",""
"null","null","clear_screen","canvas-keyboard-response","104","443889","0.0-11.0-1.46","118","2022-4-7","9:37:5","1","20","[""White""]","No","Female","1245960","","","","","","","","173","113","85","17","33","",""
"2945","9","rating","canvas-keyboard-response","105","446845","0.0-11.0-0.47","118","2022-4-7","9:37:5","1","20","[""White""]","No","Female","1245960","","","","","","","","284","113","113","33","40","1",""
"null","null","clear_screen","canvas-keyboard-response","106","447107","0.0-11.0-1.47","118","2022-4-7","9:37:5","1","20","[""White""]","No","Female","1245960","","","","","","","","284","113","113","33","40","",""
"3076","9","rating","canvas-keyboard-response","107","450197","0.0-11.0-0.48","118","2022-4-7","9:37:5","1","20","[""White""]","No","Female","1245960","","","","","","","","290","140","140","33","40","0",""
"null","null","clear_screen","canvas-keyboard-response","108","450460","0.0-11.0-1.48","118","2022-4-7","9:37:5","1","20","[""White""]","No","Female","1245960","","","","","","","","290","140","140","33","40","",""
"1811","1","rating","canvas-keyboard-response","109","452285","0.0-11.0-0.49","118","2022-4-7","9:37:5","1","20","[""White""]","No","Female","1245960","","","","","","","","241","113","30","25","40","1",""
"null","null","clear_screen","canvas-keyboard-response","110","452546","0.0-11.0-1.49","118","2022-4-7","9:37:5","1","20","[""White""]","No","Female","1245960","","","","","","","","241","113","30","25","40","",""
"2158","2","rating","canvas-keyboard-response","111","454717","0.0-11.0-0.50","118","2022-4-7","9:37:5","1","20","[""White""]","No","Female","1245960","","","","","","","","141","57","113","17","33","0",""
"null","null","clear_screen","canvas-keyboard-response","112","454976","0.0-11.0-1.50","118","2022-4-7","9:37:5","1","20","[""White""]","No","Female","1245960","","","","","","","","141","57","113","17","33","",""
"3030","6","rating","canvas-keyboard-response","113","458022","0.0-11.0-0.51","118","2022-4-7","9:37:5","1","20","[""White""]","No","Female","1245960","","","","","","","","276","85","57","33","40","1",""
"null","null","clear_screen","canvas-keyboard-response","114","458282","0.0-11.0-1.51","118","2022-4-7","9:37:5","1","20","[""White""]","No","Female","1245960","","","","","","","","276","85","57","33","40","",""
"3039","5","rating","canvas-keyboard-response","115","461333","0.0-11.0-0.52","118","2022-4-7","9:37:5","1","20","[""White""]","No","Female","1245960","","","","","","","","231","85","57","25","40","0",""
"null","null","clear_screen","canvas-keyboard-response","116","461594","0.0-11.0-1.52","118","2022-4-7","9:37:5","1","20","[""White""]","No","Female","1245960","","","","","","","","231","85","57","25","40","",""
"3123","8","rating","canvas-keyboard-response","117","464734","0.0-11.0-0.53","118","2022-4-7","9:37:5","1","20","[""White""]","No","Female","1245960","","","","","","","","179","113","113","17","40","1",""
"null","null","clear_screen","canvas-keyboard-response","118","464994","0.0-11.0-1.53","118","2022-4-7","9:37:5","1","20","[""White""]","No","Female","1245960","","","","","","","","179","113","113","17","40","",""
"4498","6","rating","canvas-keyboard-response","119","469501","0.0-11.0-0.54","118","2022-4-7","9:37:5","1","20","[""White""]","No","Female","1245960","","","","","","","","291","30","57","40","40","0",""
"null","null","clear_screen","canvas-keyboard-response","120","469761","0.0-11.0-1.54","118","2022-4-7","9:37:5","1","20","[""White""]","No","Female","1245960","","","","","","","","291","30","57","40","40","",""
"2072","4","rating","canvas-keyboard-response","121","471845","0.0-11.0-0.55","118","2022-4-7","9:37:5","1","20","[""White""]","No","Female","1245960","","","","","","","","211","57","113","25","25","0",""
"null","null","clear_screen","canvas-keyboard-response","122","472109","0.0-11.0-1.55","118","2022-4-7","9:37:5","1","20","[""White""]","No","Female","1245960","","","","","","","","211","57","113","25","25","",""
"4157","4","rating","canvas-keyboard-response","123","476276","0.0-11.0-0.56","118","2022-4-7","9:37:5","1","20","[""White""]","No","Female","1245960","","","","","","","","163","85","113","17","40","0",""
"null","null","clear_screen","canvas-keyboard-response","124","476537","0.0-11.0-1.56","118","2022-4-7","9:37:5","1","20","[""White""]","No","Female","1245960","","","","","","","","163","85","113","17","40","",""
"6021","7","rating","canvas-keyboard-response","125","482572","0.0-11.0-0.57","118","2022-4-7","9:37:5","1","20","[""White""]","No","Female","1245960","","","","","","","","162","85","85","17","40","1",""
"null","null","clear_screen","canvas-keyboard-response","126","482831","0.0-11.0-1.57","118","2022-4-7","9:37:5","1","20","[""White""]","No","Female","1245960","","","","","","","","162","85","85","17","40","",""
"2958","5","rating","canvas-keyboard-response","127","485805","0.0-11.0-0.58","118","2022-4-7","9:37:5","1","20","[""White""]","No","Female","1245960","","","","","","","","194","140","113","17","40","1",""
"null","null","clear_screen","canvas-keyboard-response","128","486066","0.0-11.0-1.58","118","2022-4-7","9:37:5","1","20","[""White""]","No","Female","1245960","","","","","","","","194","140","113","17","40","",""
"5561","6","rating","canvas-keyboard-response","129","491637","0.0-11.0-0.59","118","2022-4-7","9:37:5","1","20","[""White""]","No","Female","1245960","","","","","","","","139","57","57","17","33","0",""
"null","null","clear_screen","canvas-keyboard-response","130","491898","0.0-11.0-1.59","118","2022-4-7","9:37:5","1","20","[""White""]","No","Female","1245960","","","","","","","","139","57","57","17","33","",""
"3557","4","rating","canvas-keyboard-response","131","495468","0.0-11.0-0.60","118","2022-4-7","9:37:5","1","20","[""White""]","No","Female","1245960","","","","","","","","158","85","113","17","33","0",""
"null","null","clear_screen","canvas-keyboard-response","132","495729","0.0-11.0-1.60","118","2022-4-7","9:37:5","1","20","[""White""]","No","Female","1245960","","","","","","","","158","85","113","17","33","",""
"2008","5","rating","canvas-keyboard-response","133","497748","0.0-11.0-0.61","118","2022-4-7","9:37:5","1","20","[""White""]","No","Female","1245960","","","","","","","","248","140","85","25","33","0",""
"null","null","clear_screen","canvas-keyboard-response","134","498007","0.0-11.0-1.61","118","2022-4-7","9:37:5","1","20","[""White""]","No","Female","1245960","","","","","","","","248","140","85","25","33","",""
"3863","3","rating","canvas-keyboard-response","135","501885","0.0-11.0-0.62","118","2022-4-7","9:37:5","1","20","[""White""]","No","Female","1245960","","","","","","","","164","85","140","17","40","0",""
"null","null","clear_screen","canvas-keyboard-response","136","502147","0.0-11.0-1.62","118","2022-4-7","9:37:5","1","20","[""White""]","No","Female","1245960","","","","","","","","164","85","140","17","40","",""
"4656","2","rating","canvas-keyboard-response","137","506815","0.0-11.0-0.63","118","2022-4-7","9:37:5","1","20","[""White""]","No","Female","1245960","","","","","","","","16","30","57","10","33","1",""
"null","null","clear_screen","canvas-keyboard-response","138","507074","0.0-11.0-1.63","118","2022-4-7","9:37:5","1","20","[""White""]","No","Female","1245960","","","","","","","","16","30","57","10","33","",""
"14534","8","rating","canvas-keyboard-response","139","521622","0.0-11.0-0.64","118","2022-4-7","9:37:5","1","20","[""White""]","No","Female","1245960","","","","","","","","57","85","85","10","25","1",""
"null","null","clear_screen","canvas-keyboard-response","140","521880","0.0-11.0-1.64","118","2022-4-7","9:37:5","1","20","[""White""]","No","Female","1245960","","","","","","","","57","85","85","10","25","",""
"2065","6","rating","canvas-keyboard-response","141","523957","0.0-11.0-0.65","118","2022-4-7","9:37:5","1","20","[""White""]","No","Female","1245960","","","","","","","","188","140","85","17","33","0",""
"null","null","clear_screen","canvas-keyboard-response","142","524218","0.0-11.0-1.65","118","2022-4-7","9:37:5","1","20","[""White""]","No","Female","1245960","","","","","","","","188","140","85","17","33","",""
"2408","7","rating","canvas-keyboard-response","143","526637","0.0-11.0-0.66","118","2022-4-7","9:37:5","1","20","[""White""]","No","Female","1245960","","","","","","","","53","85","113","10","17","1",""
"null","null","clear_screen","canvas-keyboard-response","144","526896","0.0-11.0-1.66","118","2022-4-7","9:37:5","1","20","[""White""]","No","Female","1245960","","","","","","","","53","85","113","10","17","",""
"3988","7","rating","canvas-keyboard-response","145","530893","0.0-11.0-0.67","118","2022-4-7","9:37:5","1","20","[""White""]","No","Female","1245960","","","","","","","","299","85","140","40","40","1",""
"null","null","clear_screen","canvas-keyboard-response","146","531153","0.0-11.0-1.67","118","2022-4-7","9:37:5","1","20","[""White""]","No","Female","1245960","","","","","","","","299","85","140","40","40","",""
"1538","3","rating","canvas-keyboard-response","147","532701","0.0-11.0-0.68","118","2022-4-7","9:37:5","1","20","[""White""]","No","Female","1245960","","","","","","","","46","57","113","10","40","0",""
"null","null","clear_screen","canvas-keyboard-response","148","532962","0.0-11.0-1.68","118","2022-4-7","9:37:5","1","20","[""White""]","No","Female","1245960","","","","","","","","46","57","113","10","40","",""
"3801","3","rating","canvas-keyboard-response","149","536773","0.0-11.0-0.69","118","2022-4-7","9:37:5","1","20","[""White""]","No","Female","1245960","","","","","","","","234","85","140","25","40","1",""
"null","null","clear_screen","canvas-keyboard-response","150","537033","0.0-11.0-1.69","118","2022-4-7","9:37:5","1","20","[""White""]","No","Female","1245960","","","","","","","","234","85","140","25","40","",""
"5013","3","rating","canvas-keyboard-response","151","542061","0.0-11.0-0.70","118","2022-4-7","9:37:5","1","20","[""White""]","No","Female","1245960","","","","","","","","78","113","85","10","25","1",""
"null","null","clear_screen","canvas-keyboard-response","152","542321","0.0-11.0-1.70","118","2022-4-7","9:37:5","1","20","[""White""]","No","Female","1245960","","","","","","","","78","113","85","10","25","",""
"3392","8","rating","canvas-keyboard-response","153","545725","0.0-11.0-0.71","118","2022-4-7","9:37:5","1","20","[""White""]","No","Female","1245960","","","","","","","","250","140","140","25","33","0",""
"null","null","clear_screen","canvas-keyboard-response","154","545983","0.0-11.0-1.71","118","2022-4-7","9:37:5","1","20","[""White""]","No","Female","1245960","","","","","","","","250","140","140","25","33","",""
"2667","6","rating","canvas-keyboard-response","155","548661","0.0-11.0-0.72","118","2022-4-7","9:37:5","1","20","[""White""]","No","Female","1245960","","","","","","","","133","57","30","17","25","1",""
"null","null","clear_screen","canvas-keyboard-response","156","548923","0.0-11.0-1.72","118","2022-4-7","9:37:5","1","20","[""White""]","No","Female","1245960","","","","","","","","133","57","30","17","25","",""
"2109","5","rating","canvas-keyboard-response","157","551045","0.0-11.0-0.73","118","2022-4-7","9:37:5","1","20","[""White""]","No","Female","1245960","","","","","","","","201","30","57","25","33","1",""
"null","null","clear_screen","canvas-keyboard-response","158","551309","0.0-11.0-1.73","118","2022-4-7","9:37:5","1","20","[""White""]","No","Female","1245960","","","","","","","","201","30","57","25","33","",""
"2186","1","rating","canvas-keyboard-response","159","553510","0.0-11.0-0.74","118","2022-4-7","9:37:5","1","20","[""White""]","No","Female","1245960","","","","","","","","119","30","140","17","25","1",""
"null","null","clear_screen","canvas-keyboard-response","160","553771","0.0-11.0-1.74","118","2022-4-7","9:37:5","1","20","[""White""]","No","Female","1245960","","","","","","","","119","30","140","17","25","",""
"5708","4","rating","canvas-keyboard-response","161","559493","0.0-11.0-0.75","118","2022-4-7","9:37:5","1","20","[""White""]","No","Female","1245960","","","","","","","","56","85","57","10","25","1",""
"null","null","clear_screen","canvas-keyboard-response","162","559755","0.0-11.0-1.75","118","2022-4-7","9:37:5","1","20","[""White""]","No","Female","1245960","","","","","","","","56","85","57","10","25","",""
"1253","3","rating","canvas-keyboard-response","163","561021","0.0-11.0-0.76","118","2022-4-7","9:37:5","1","20","[""White""]","No","Female","1245960","","","","","","","","25","57","85","10","10","0",""
"null","null","clear_screen","canvas-keyboard-response","164","561282","0.0-11.0-1.76","118","2022-4-7","9:37:5","1","20","[""White""]","No","Female","1245960","","","","","","","","25","57","85","10","10","",""
"4214","2","rating","canvas-keyboard-response","165","565509","0.0-11.0-0.77","118","2022-4-7","9:37:5","1","20","[""White""]","No","Female","1245960","","","","","","","","65","85","30","10","40","1",""
"null","null","clear_screen","canvas-keyboard-response","166","565769","0.0-11.0-1.77","118","2022-4-7","9:37:5","1","20","[""White""]","No","Female","1245960","","","","","","","","65","85","30","10","40","",""
"1529","2","rating","canvas-keyboard-response","167","567309","0.0-11.0-0.78","118","2022-4-7","9:37:5","1","20","[""White""]","No","Female","1245960","","","","","","","","13","30","113","10","25","0",""
"null","null","clear_screen","canvas-keyboard-response","168","567569","0.0-11.0-1.78","118","2022-4-7","9:37:5","1","20","[""White""]","No","Female","1245960","","","","","","","","13","30","113","10","25","",""
"1920","3","rating","canvas-keyboard-response","169","569501","0.0-11.0-0.79","118","2022-4-7","9:37:5","1","20","[""White""]","No","Female","1245960","","","","","","","","92","140","57","10","17","1",""
"null","null","clear_screen","canvas-keyboard-response","170","569759","0.0-11.0-1.79","118","2022-4-7","9:37:5","1","20","[""White""]","No","Female","1245960","","","","","","","","92","140","57","10","17","",""
"4551","3","rating","canvas-keyboard-response","171","574324","0.0-11.0-0.80","118","2022-4-7","9:37:5","1","20","[""White""]","No","Female","1245960","","","","","","","","144","57","57","17","40","1",""
"null","null","clear_screen","canvas-keyboard-response","172","574584","0.0-11.0-1.80","118","2022-4-7","9:37:5","1","20","[""White""]","No","Female","1245960","","","","","","","","144","57","57","17","40","",""
"2377","8","rating","canvas-keyboard-response","173","576973","0.0-11.0-0.81","118","2022-4-7","9:37:5","1","20","[""White""]","No","Female","1245960","","","","","","","","157","85","85","17","33","1",""
"null","null","clear_screen","canvas-keyboard-response","174","577236","0.0-11.0-1.81","118","2022-4-7","9:37:5","1","20","[""White""]","No","Female","1245960","","","","","","","","157","85","85","17","33","",""
"4045","2","rating","canvas-keyboard-response","175","581293","0.0-11.0-0.82","118","2022-4-7","9:37:5","1","20","[""White""]","No","Female","1245960","","","","","","","","33","57","30","10","25","0",""
"null","null","clear_screen","canvas-keyboard-response","176","581554","0.0-11.0-1.82","118","2022-4-7","9:37:5","1","20","[""White""]","No","Female","1245960","","","","","","","","33","57","30","10","25","",""
"5334","9","rating","canvas-keyboard-response","177","586901","0.0-11.0-0.83","118","2022-4-7","9:37:5","1","20","[""White""]","No","Female","1245960","","","","","","","","74","113","113","10","17","0",""
"null","null","clear_screen","canvas-keyboard-response","178","587163","0.0-11.0-1.83","118","2022-4-7","9:37:5","1","20","[""White""]","No","Female","1245960","","","","","","","","74","113","113","10","17","",""
"3790","8","rating","canvas-keyboard-response","179","590966","0.0-11.0-0.84","118","2022-4-7","9:37:5","1","20","[""White""]","No","Female","1245960","","","","","","","","245","113","140","25","40","1",""
"null","null","clear_screen","canvas-keyboard-response","180","591228","0.0-11.0-1.84","118","2022-4-7","9:37:5","1","20","[""White""]","No","Female","1245960","","","","","","","","245","113","140","25","40","",""
"1646","9","rating","canvas-keyboard-response","181","592885","0.0-11.0-0.85","118","2022-4-7","9:37:5","1","20","[""White""]","No","Female","1245960","","","","","","","","165","113","140","17","17","0",""
"null","null","clear_screen","canvas-keyboard-response","182","593146","0.0-11.0-1.85","118","2022-4-7","9:37:5","1","20","[""White""]","No","Female","1245960","","","","","","","","165","113","140","17","17","",""
"6775","5","rating","canvas-keyboard-response","183","599933","0.0-11.0-0.86","118","2022-4-7","9:37:5","1","20","[""White""]","No","Female","1245960","","","","","","","","103","140","85","10","33","1",""
"null","null","clear_screen","canvas-keyboard-response","184","600192","0.0-11.0-1.86","118","2022-4-7","9:37:5","1","20","[""White""]","No","Female","1245960","","","","","","","","103","140","85","10","33","",""
"1633","2","rating","canvas-keyboard-response","185","601837","0.0-11.0-0.87","118","2022-4-7","9:37:5","1","20","[""White""]","No","Female","1245960","","","","","","","","191","140","30","17","40","1",""
"null","null","clear_screen","canvas-keyboard-response","186","602101","0.0-11.0-1.87","118","2022-4-7","9:37:5","1","20","[""White""]","No","Female","1245960","","","","","","","","191","140","30","17","40","",""
"6520","6","rating","canvas-keyboard-response","187","608637","0.0-11.0-0.88","118","2022-4-7","9:37:5","1","20","[""White""]","No","Female","1245960","","","","","","","","168","113","85","17","25","0",""
"null","null","clear_screen","canvas-keyboard-response","188","608894","0.0-11.0-1.88","118","2022-4-7","9:37:5","1","20","[""White""]","No","Female","1245960","","","","","","","","168","113","85","17","25","",""
"2699","7","rating","canvas-keyboard-response","189","611605","0.0-11.0-0.89","118","2022-4-7","9:37:5","1","20","[""White""]","No","Female","1245960","","","","","","","","130","57","85","17","17","1",""
"null","null","clear_screen","canvas-keyboard-response","190","611864","0.0-11.0-1.89","118","2022-4-7","9:37:5","1","20","[""White""]","No","Female","1245960","","","","","","","","130","57","85","17","17","",""
"5726","5","rating","canvas-keyboard-response","191","617605","0.0-11.0-0.90","118","2022-4-7","9:37:5","1","20","[""White""]","No","Female","1245960","","","","","","","","254","140","113","25","40","1",""
"null","null","clear_screen","canvas-keyboard-response","192","617867","0.0-11.0-1.90","118","2022-4-7","9:37:5","1","20","[""White""]","No","Female","1245960","","","","","","","","254","140","113","25","40","",""
"1488","4","rating","canvas-keyboard-response","193","619365","0.0-11.0-0.91","118","2022-4-7","9:37:5","1","20","[""White""]","No","Female","1245960","","","","","","","","267","57","140","33","33","1",""
"null","null","clear_screen","canvas-keyboard-response","194","619623","0.0-11.0-1.91","118","2022-4-7","9:37:5","1","20","[""White""]","No","Female","1245960","","","","","","","","267","57","140","33","33","",""
"1259","3","rating","canvas-keyboard-response","195","620892","0.0-11.0-0.92","118","2022-4-7","9:37:5","1","20","[""White""]","No","Female","1245960","","","","","","","","26","57","113","10","10","0",""
"null","null","clear_screen","canvas-keyboard-response","196","621152","0.0-11.0-1.92","118","2022-4-7","9:37:5","1","20","[""White""]","No","Female","1245960","","","","","","","","26","57","113","10","10","",""
"1888","3","rating","canvas-keyboard-response","197","623053","0.0-11.0-0.93","118","2022-4-7","9:37:5","1","20","[""White""]","No","Female","1245960","","","","","","","","258","30","113","33","33","0",""
"null","null","clear_screen","canvas-keyboard-response","198","623312","0.0-11.0-1.93","118","2022-4-7","9:37:5","1","20","[""White""]","No","Female","1245960","","","","","","","","258","30","113","33","33","",""
"2264","3","rating","canvas-keyboard-response","199","625589","0.0-11.0-0.94","118","2022-4-7","9:37:5","1","20","[""White""]","No","Female","1245960","","","","","","","","222","57","140","25","40","1",""
"null","null","clear_screen","canvas-keyboard-response","200","625852","0.0-11.0-1.94","118","2022-4-7","9:37:5","1","20","[""White""]","No","Female","1245960","","","","","","","","222","57","140","25","40","",""
"1454","2","rating","canvas-keyboard-response","201","627317","0.0-11.0-0.95","118","2022-4-7","9:37:5","1","20","[""White""]","No","Female","1245960","","","","","","","","87","113","57","10","40","0",""
"null","null","clear_screen","canvas-keyboard-response","202","627578","0.0-11.0-1.95","118","2022-4-7","9:37:5","1","20","[""White""]","No","Female","1245960","","","","","","","","87","113","57","10","40","",""
"2512","4","rating","canvas-keyboard-response","203","630102","0.0-11.0-0.96","118","2022-4-7","9:37:5","1","20","[""White""]","No","Female","1245960","","","","","","","","193","140","85","17","40","1",""
"null","null","clear_screen","canvas-keyboard-response","204","630363","0.0-11.0-1.96","118","2022-4-7","9:37:5","1","20","[""White""]","No","Female","1245960","","","","","","","","193","140","85","17","40","",""
"4443","9","rating","canvas-keyboard-response","205","634821","0.0-11.0-0.97","118","2022-4-7","9:37:5","1","20","[""White""]","No","Female","1245960","","","","","","","","219","57","57","25","40","0",""
"null","null","clear_screen","canvas-keyboard-response","206","635081","0.0-11.0-1.97","118","2022-4-7","9:37:5","1","20","[""White""]","No","Female","1245960","","","","","","","","219","57","57","25","40","",""
"2320","7","rating","canvas-keyboard-response","207","637412","0.0-11.0-0.98","118","2022-4-7","9:37:5","1","20","[""White""]","No","Female","1245960","","","","","","","","240","113","140","25","33","0",""
"null","null","clear_screen","canvas-keyboard-response","208","637673","0.0-11.0-1.98","118","2022-4-7","9:37:5","1","20","[""White""]","No","Female","1245960","","","","","","","","240","113","140","25","33","",""
"3801","3","rating","canvas-keyboard-response","209","641485","0.0-11.0-0.99","118","2022-4-7","9:37:5","1","20","[""White""]","No","Female","1245960","","","","","","","","183","140","85","17","25","1",""
"null","null","clear_screen","canvas-keyboard-response","210","641746","0.0-11.0-1.99","118","2022-4-7","9:37:5","1","20","[""White""]","No","Female","1245960","","","","","","","","183","140","85","17","25","",""
"4806","7","rating","canvas-keyboard-response","211","646565","0.0-11.0-0.100","118","2022-4-7","9:37:5","1","20","[""White""]","No","Female","1245960","","","","","","","","20","30","30","10","40","0",""
"null","null","clear_screen","canvas-keyboard-response","212","646826","0.0-11.0-1.100","118","2022-4-7","9:37:5","1","20","[""White""]","No","Female","1245960","","","","","","","","20","30","30","10","40","",""
"2687","3","rating","canvas-keyboard-response","213","649524","0.0-11.0-0.101","118","2022-4-7","9:37:5","1","20","[""White""]","No","Female","1245960","","","","","","","","80","113","140","10","25","1",""
"null","null","clear_screen","canvas-keyboard-response","214","649786","0.0-11.0-1.101","118","2022-4-7","9:37:5","1","20","[""White""]","No","Female","1245960","","","","","","","","80","113","140","10","25","",""
"4894","2","rating","canvas-keyboard-response","215","654692","0.0-11.0-0.102","118","2022-4-7","9:37:5","1","20","[""White""]","No","Female","1245960","","","","","","","","213","57","30","25","33","1",""
"null","null","clear_screen","canvas-keyboard-response","216","654950","0.0-11.0-1.102","118","2022-4-7","9:37:5","1","20","[""White""]","No","Female","1245960","","","","","","","","213","57","30","25","33","",""
"2817","2","rating","canvas-keyboard-response","217","657781","0.0-11.0-0.103","118","2022-4-7","9:37:5","1","20","[""White""]","No","Female","1245960","","","","","","","","37","57","140","10","25","1",""
"null","null","clear_screen","canvas-keyboard-response","218","658039","0.0-11.0-1.103","118","2022-4-7","9:37:5","1","20","[""White""]","No","Female","1245960","","","","","","","","37","57","140","10","25","",""
"1895","6","rating","canvas-keyboard-response","219","659949","0.0-11.0-0.104","118","2022-4-7","9:37:5","1","20","[""White""]","No","Female","1245960","","","","","","","","51","85","57","10","17","1",""
"null","null","clear_screen","canvas-keyboard-response","220","660207","0.0-11.0-1.104","118","2022-4-7","9:37:5","1","20","[""White""]","No","Female","1245960","","","","","","","","51","85","57","10","17","",""
"1791","9","rating","canvas-keyboard-response","221","662013","0.0-11.0-0.105","118","2022-4-7","9:37:5","1","20","[""White""]","No","Female","1245960","","","","","","","","260","30","30","33","40","1",""
"null","null","clear_screen","canvas-keyboard-response","222","662272","0.0-11.0-1.105","118","2022-4-7","9:37:5","1","20","[""White""]","No","Female","1245960","","","","","","","","260","30","30","33","40","",""
"3316","6","rating","canvas-keyboard-response","223","665606","0.0-11.0-0.106","118","2022-4-7","9:37:5","1","20","[""White""]","No","Female","1245960","","","","","","","","237","113","57","25","33","1",""
"null","null","clear_screen","canvas-keyboard-response","224","665867","0.0-11.0-1.106","118","2022-4-7","9:37:5","1","20","[""White""]","No","Female","1245960","","","","","","","","237","113","57","25","33","",""
"2919","7","rating","canvas-keyboard-response","225","668797","0.0-11.0-0.107","118","2022-4-7","9:37:5","1","20","[""White""]","No","Female","1245960","","","","","","","","288","140","85","33","40","1",""
"null","null","clear_screen","canvas-keyboard-response","226","669058","0.0-11.0-1.107","118","2022-4-7","9:37:5","1","20","[""White""]","No","Female","1245960","","","","","","","","288","140","85","33","40","",""
"4542","5","rating","canvas-keyboard-response","227","673613","0.0-11.0-0.108","118","2022-4-7","9:37:5","1","20","[""White""]","No","Female","1245960","","","","","","","","138","57","30","17","33","0",""
"null","null","clear_screen","canvas-keyboard-response","228","673873","0.0-11.0-1.108","118","2022-4-7","9:37:5","1","20","[""White""]","No","Female","1245960","","","","","","","","138","57","30","17","33","",""
"1893","2","rating","canvas-keyboard-response","229","675781","0.0-11.0-0.109","118","2022-4-7","9:37:5","1","20","[""White""]","No","Female","1245960","","","","","","","","4","30","140","10","10","1",""
"null","null","clear_screen","canvas-keyboard-response","230","676040","0.0-11.0-1.109","118","2022-4-7","9:37:5","1","20","[""White""]","No","Female","1245960","","","","","","","","4","30","140","10","10","",""
"3211","2","rating","canvas-keyboard-response","231","679261","0.0-11.0-0.110","118","2022-4-7","9:37:5","1","20","[""White""]","No","Female","1245960","","","","","","","","10","30","30","10","25","0",""
"null","null","clear_screen","canvas-keyboard-response","232","679520","0.0-11.0-1.110","118","2022-4-7","9:37:5","1","20","[""White""]","No","Female","1245960","","","","","","","","10","30","30","10","25","",""
"2768","4","rating","canvas-keyboard-response","233","682302","0.0-11.0-0.111","118","2022-4-7","9:37:5","1","20","[""White""]","No","Female","1245960","","","","","","","","50","85","30","10","17","1",""
"null","null","clear_screen","canvas-keyboard-response","234","682561","0.0-11.0-1.111","118","2022-4-7","9:37:5","1","20","[""White""]","No","Female","1245960","","","","","","","","50","85","30","10","17","",""
"1609","2","rating","canvas-keyboard-response","235","684181","0.0-11.0-0.112","118","2022-4-7","9:37:5","1","20","[""White""]","No","Female","1245960","","","","","","","","43","57","30","10","40","0",""
"null","null","clear_screen","canvas-keyboard-response","236","684441","0.0-11.0-1.112","118","2022-4-7","9:37:5","1","20","[""White""]","No","Female","1245960","","","","","","","","43","57","30","10","40","",""
"2457","4","rating","canvas-keyboard-response","237","686909","0.0-11.0-0.113","118","2022-4-7","9:37:5","1","20","[""White""]","No","Female","1245960","","","","","","","","161","85","57","17","40","0",""
"null","null","clear_screen","canvas-keyboard-response","238","687170","0.0-11.0-1.113","118","2022-4-7","9:37:5","1","20","[""White""]","No","Female","1245960","","","","","","","","161","85","57","17","40","",""
"1927","7","rating","canvas-keyboard-response","239","689109","0.0-11.0-0.114","118","2022-4-7","9:37:5","1","20","[""White""]","No","Female","1245960","","","","","","","","300","113","140","40","40","0",""
"null","null","clear_screen","canvas-keyboard-response","240","689367","0.0-11.0-1.114","118","2022-4-7","9:37:5","1","20","[""White""]","No","Female","1245960","","","","","","","","300","113","140","40","40","",""
"1491","4","rating","canvas-keyboard-response","241","690868","0.0-11.0-0.115","118","2022-4-7","9:37:5","1","20","[""White""]","No","Female","1245960","","","","","","","","63","85","113","10","33","1",""
"null","null","clear_screen","canvas-keyboard-response","242","691130","0.0-11.0-1.115","118","2022-4-7","9:37:5","1","20","[""White""]","No","Female","1245960","","","","","","","","63","85","113","10","33","",""
"1472","2","rating","canvas-keyboard-response","243","692613","0.0-11.0-0.116","118","2022-4-7","9:37:5","1","20","[""White""]","No","Female","1245960","","","","","","","","123","30","113","17","33","1",""
"null","null","clear_screen","canvas-keyboard-response","244","692874","0.0-11.0-1.116","118","2022-4-7","9:37:5","1","20","[""White""]","No","Female","1245960","","","","","","","","123","30","113","17","33","",""
"1589","1","rating","canvas-keyboard-response","245","694477","0.0-11.0-0.117","118","2022-4-7","9:37:5","1","20","[""White""]","No","Female","1245960","","","","","","","","246","140","30","25","33","1",""
"null","null","clear_screen","canvas-keyboard-response","246","694734","0.0-11.0-1.117","118","2022-4-7","9:37:5","1","20","[""White""]","No","Female","1245960","","","","","","","","246","140","30","25","33","",""
"3833","3","rating","canvas-keyboard-response","247","698580","0.0-11.0-0.118","118","2022-4-7","9:37:5","1","20","[""White""]","No","Female","1245960","","","","","","","","112","30","85","17","17","1",""
"null","null","clear_screen","canvas-keyboard-response","248","698839","0.0-11.0-1.118","118","2022-4-7","9:37:5","1","20","[""White""]","No","Female","1245960","","","","","","","","112","30","85","17","17","",""
"7769","4","rating","canvas-keyboard-response","249","706621","0.0-11.0-0.119","118","2022-4-7","9:37:5","1","20","[""White""]","No","Female","1245960","","","","","","","","62","85","85","10","33","1",""
"null","null","clear_screen","canvas-keyboard-response","250","706878","0.0-11.0-1.119","118","2022-4-7","9:37:5","1","20","[""White""]","No","Female","1245960","","","","","","","","62","85","85","10","33","",""
"6306","5","rating","canvas-keyboard-response","251","713197","0.0-11.0-0.120","118","2022-4-7","9:37:5","1","20","[""White""]","No","Female","1245960","","","","","","","","271","57","113","33","40","1",""
"null","null","clear_screen","canvas-keyboard-response","252","713457","0.0-11.0-1.120","118","2022-4-7","9:37:5","1","20","[""White""]","No","Female","1245960","","","","","","","","271","57","113","33","40","",""
"2867","2","rating","canvas-keyboard-response","253","716341","0.0-11.0-0.121","118","2022-4-7","9:37:5","1","20","[""White""]","No","Female","1245960","","","","","","","","32","57","140","10","17","1",""
"null","null","clear_screen","canvas-keyboard-response","254","716601","0.0-11.0-1.121","118","2022-4-7","9:37:5","1","20","[""White""]","No","Female","1245960","","","","","","","","32","57","140","10","17","",""
"1469","2","rating","canvas-keyboard-response","255","718084","0.0-11.0-0.122","118","2022-4-7","9:37:5","1","20","[""White""]","No","Female","1245960","","","","","","","","77","113","57","10","25","1",""
"null","null","clear_screen","canvas-keyboard-response","256","718346","0.0-11.0-1.122","118","2022-4-7","9:37:5","1","20","[""White""]","No","Female","1245960","","","","","","","","77","113","57","10","25","",""
"3039","7","rating","canvas-keyboard-response","257","721397","0.0-11.0-0.123","118","2022-4-7","9:37:5","1","20","[""White""]","No","Female","1245960","","","","","","","","125","30","30","17","40","0",""
"null","null","clear_screen","canvas-keyboard-response","258","721655","0.0-11.0-1.123","118","2022-4-7","9:37:5","1","20","[""White""]","No","Female","1245960","","","","","","","","125","30","30","17","40","",""
"1732","3","rating","canvas-keyboard-response","259","723397","0.0-11.0-0.124","118","2022-4-7","9:37:5","1","20","[""White""]","No","Female","1245960","","","","","","","","8","30","113","10","17","0",""
"null","null","clear_screen","canvas-keyboard-response","260","723660","0.0-11.0-1.124","118","2022-4-7","9:37:5","1","20","[""White""]","No","Female","1245960","","","","","","","","8","30","113","10","17","",""
"4869","2","rating","canvas-keyboard-response","261","728541","0.0-11.0-0.125","118","2022-4-7","9:37:5","1","20","[""White""]","No","Female","1245960","","","","","","","","192","140","57","17","40","0",""
"null","null","clear_screen","canvas-keyboard-response","262","728801","0.0-11.0-1.125","118","2022-4-7","9:37:5","1","20","[""White""]","No","Female","1245960","","","","","","","","192","140","57","17","40","",""
"2837","7","rating","canvas-keyboard-response","263","731653","0.0-11.0-0.126","118","2022-4-7","9:37:5","1","20","[""White""]","No","Female","1245960","","","","","","","","58","85","113","10","25","1",""
"null","null","clear_screen","canvas-keyboard-response","264","731914","0.0-11.0-1.126","118","2022-4-7","9:37:5","1","20","[""White""]","No","Female","1245960","","","","","","","","58","85","113","10","25","",""
"4376","3","rating","canvas-keyboard-response","265","736303","0.0-11.0-0.127","118","2022-4-7","9:37:5","1","20","[""White""]","No","Female","1245960","","","","","","","","147","57","140","17","40","1",""
"null","null","clear_screen","canvas-keyboard-response","266","736563","0.0-11.0-1.127","118","2022-4-7","9:37:5","1","20","[""White""]","No","Female","1245960","","","","","","","","147","57","140","17","40","",""
"3484","7","rating","canvas-keyboard-response","267","740061","0.0-11.0-0.128","118","2022-4-7","9:37:5","1","20","[""White""]","No","Female","1245960","","","","","","","","148","85","113","17","17","1",""
"null","null","clear_screen","canvas-keyboard-response","268","740321","0.0-11.0-1.128","118","2022-4-7","9:37:5","1","20","[""White""]","No","Female","1245960","","","","","","","","148","85","113","17","17","",""
"3798","7","rating","canvas-keyboard-response","269","744134","0.0-11.0-0.129","118","2022-4-7","9:37:5","1","20","[""White""]","No","Female","1245960","","","","","","","","268","57","30","33","40","0",""
"null","null","clear_screen","canvas-keyboard-response","270","744392","0.0-11.0-1.129","118","2022-4-7","9:37:5","1","20","[""White""]","No","Female","1245960","","","","","","","","268","57","30","33","40","",""
"1520","5","rating","canvas-keyboard-response","271","745924","0.0-11.0-0.130","118","2022-4-7","9:37:5","1","20","[""White""]","No","Female","1245960","","","","","","","","172","113","57","17","33","1",""
"null","null","clear_screen","canvas-keyboard-response","272","746183","0.0-11.0-1.130","118","2022-4-7","9:37:5","1","20","[""White""]","No","Female","1245960","","","","","","","","172","113","57","17","33","",""
"4034","6","rating","canvas-keyboard-response","273","750228","0.0-11.0-0.131","118","2022-4-7","9:37:5","1","20","[""White""]","No","Female","1245960","","","","","","","","54","85","140","10","17","0",""
"null","null","clear_screen","canvas-keyboard-response","274","750493","0.0-11.0-1.131","118","2022-4-7","9:37:5","1","20","[""White""]","No","Female","1245960","","","","","","","","54","85","140","10","17","",""
"1614","5","rating","canvas-keyboard-response","275","752117","0.0-11.0-0.132","118","2022-4-7","9:37:5","1","20","[""White""]","No","Female","1245960","","","","","","","","90","113","140","10","40","1",""
"null","null","clear_screen","canvas-keyboard-response","276","752376","0.0-11.0-1.132","118","2022-4-7","9:37:5","1","20","[""White""]","No","Female","1245960","","","","","","","","90","113","140","10","40","",""
"2505","8","rating","canvas-keyboard-response","277","754892","0.0-11.0-0.133","118","2022-4-7","9:37:5","1","20","[""White""]","No","Female","1245960","","","","","","","","178","113","85","17","40","1",""
"null","null","clear_screen","canvas-keyboard-response","278","755153","0.0-11.0-1.133","118","2022-4-7","9:37:5","1","20","[""White""]","No","Female","1245960","","","","","","","","178","113","85","17","40","",""
"3854","4","rating","canvas-keyboard-response","279","759021","0.0-11.0-0.134","118","2022-4-7","9:37:5","1","20","[""White""]","No","Female","1245960","","","","","","","","59","85","140","10","25","1",""
"null","null","clear_screen","canvas-keyboard-response","280","759282","0.0-11.0-1.134","118","2022-4-7","9:37:5","1","20","[""White""]","No","Female","1245960","","","","","","","","59","85","140","10","25","",""
"7294","7","rating","canvas-keyboard-response","281","766589","0.0-11.0-0.135","118","2022-4-7","9:37:5","1","20","[""White""]","No","Female","1245960","","","","","","","","35","57","85","10","25","1",""
"null","null","clear_screen","canvas-keyboard-response","282","766851","0.0-11.0-1.135","118","2022-4-7","9:37:5","1","20","[""White""]","No","Female","1245960","","","","","","","","35","57","85","10","25","",""
"2180","2","rating","canvas-keyboard-response","283","769045","0.0-11.0-0.136","118","2022-4-7","9:37:5","1","20","[""White""]","No","Female","1245960","","","","","","","","236","113","30","25","33","0",""
"null","null","clear_screen","canvas-keyboard-response","284","769305","0.0-11.0-1.136","118","2022-4-7","9:37:5","1","20","[""White""]","No","Female","1245960","","","","","","","","236","113","30","25","33","",""
"2426","2","rating","canvas-keyboard-response","285","771742","0.0-11.0-0.137","118","2022-4-7","9:37:5","1","20","[""White""]","No","Female","1245960","","","","","","","","7","30","85","10","17","0",""
"null","null","clear_screen","canvas-keyboard-response","286","772003","0.0-11.0-1.137","118","2022-4-7","9:37:5","1","20","[""White""]","No","Female","1245960","","","","","","","","7","30","85","10","17","",""
"1911","3","rating","canvas-keyboard-response","287","773925","0.0-11.0-0.138","118","2022-4-7","9:37:5","1","20","[""White""]","No","Female","1245960","","","","","","","","137","57","140","17","25","1",""
"null","null","clear_screen","canvas-keyboard-response","288","774185","0.0-11.0-1.138","118","2022-4-7","9:37:5","1","20","[""White""]","No","Female","1245960","","","","","","","","137","57","140","17","25","",""
"2477","7","rating","canvas-keyboard-response","289","776677","0.0-11.0-0.139","118","2022-4-7","9:37:5","1","20","[""White""]","No","Female","1245960","","","","","","","","220","57","85","25","40","1",""
"null","null","clear_screen","canvas-keyboard-response","290","776936","0.0-11.0-1.139","118","2022-4-7","9:37:5","1","20","[""White""]","No","Female","1245960","","","","","","","","220","57","85","25","40","",""
"3209","3","rating","canvas-keyboard-response","291","780157","0.0-11.0-0.140","118","2022-4-7","9:37:5","1","20","[""White""]","No","Female","1245960","","","","","","","","61","85","57","10","33","0",""
"null","null","clear_screen","canvas-keyboard-response","292","780418","0.0-11.0-1.140","118","2022-4-7","9:37:5","1","20","[""White""]","No","Female","1245960","","","","","","","","61","85","57","10","33","",""
"1470","9","rating","canvas-keyboard-response","293","781901","0.0-11.0-0.141","118","2022-4-7","9:37:5","1","20","[""White""]","No","Female","1245960","","","","","","","","223","85","113","25","25","1",""
"null","null","clear_screen","canvas-keyboard-response","294","782162","0.0-11.0-1.141","118","2022-4-7","9:37:5","1","20","[""White""]","No","Female","1245960","","","","","","","","223","85","113","25","25","",""
"1912","8","rating","canvas-keyboard-response","295","784085","0.0-11.0-0.142","118","2022-4-7","9:37:5","1","20","[""White""]","No","Female","1245960","","","","","","","","205","30","30","25","40","0",""
"null","null","clear_screen","canvas-keyboard-response","296","784343","0.0-11.0-1.142","118","2022-4-7","9:37:5","1","20","[""White""]","No","Female","1245960","","","","","","","","205","30","30","25","40","",""
"2134","6","rating","canvas-keyboard-response","297","786492","0.0-11.0-0.143","118","2022-4-7","9:37:5","1","20","[""White""]","No","Female","1245960","","","","","","","","67","85","85","10","40","0",""
"null","null","clear_screen","canvas-keyboard-response","298","786753","0.0-11.0-1.143","118","2022-4-7","9:37:5","1","20","[""White""]","No","Female","1245960","","","","","","","","67","85","85","10","40","",""
"4317","3","rating","canvas-keyboard-response","299","791085","0.0-11.0-0.144","118","2022-4-7","9:37:5","1","20","[""White""]","No","Female","1245960","","","","","","","","150","85","30","17","25","0",""
"null","null","clear_screen","canvas-keyboard-response","300","791344","0.0-11.0-1.144","118","2022-4-7","9:37:5","1","20","[""White""]","No","Female","1245960","","","","","","","","150","85","30","17","25","",""
"1543","2","rating","canvas-keyboard-response","301","792902","0.0-11.0-0.145","118","2022-4-7","9:37:5","1","20","[""White""]","No","Female","1245960","","","","","","","","263","30","113","33","40","1",""
"null","null","clear_screen","canvas-keyboard-response","302","793163","0.0-11.0-1.145","118","2022-4-7","9:37:5","1","20","[""White""]","No","Female","1245960","","","","","","","","263","30","113","33","40","",""
"8156","2","rating","canvas-keyboard-response","303","801333","0.0-11.0-0.146","118","2022-4-7","9:37:5","1","20","[""White""]","No","Female","1245960","","","","","","","","287","140","57","33","40","0",""
"null","null","clear_screen","canvas-keyboard-response","304","801594","0.0-11.0-1.146","118","2022-4-7","9:37:5","1","20","[""White""]","No","Female","1245960","","","","","","","","287","140","57","33","40","",""
"4003","4","rating","canvas-keyboard-response","305","805615","0.0-11.0-0.147","118","2022-4-7","9:37:5","1","20","[""White""]","No","Female","1245960","","","","","","","","266","57","113","33","33","0",""
"null","null","clear_screen","canvas-keyboard-response","306","805876","0.0-11.0-1.147","118","2022-4-7","9:37:5","1","20","[""White""]","No","Female","1245960","","","","","","","","266","57","113","33","33","",""
"1395","2","rating","canvas-keyboard-response","307","807284","0.0-11.0-0.148","118","2022-4-7","9:37:5","1","20","[""White""]","No","Female","1245960","","","","","","","","281","113","30","33","40","1",""
"null","null","clear_screen","canvas-keyboard-response","308","807543","0.0-11.0-1.148","118","2022-4-7","9:37:5","1","20","[""White""]","No","Female","1245960","","","","","","","","281","113","30","33","40","",""
"3364","1","rating","canvas-keyboard-response","309","810925","0.0-11.0-0.149","118","2022-4-7","9:37:5","1","20","[""White""]","No","Female","1245960","","","","","","","","91","140","30","10","17","0",""
"null","null","clear_screen","canvas-keyboard-response","310","811188","0.0-11.0-1.149","118","2022-4-7","9:37:5","1","20","[""White""]","No","Female","1245960","","","","","","","","91","140","30","10","17","",""
"2331","8","rating","canvas-keyboard-response","311","813533","0.0-11.0-0.150","118","2022-4-7","9:37:5","1","20","[""White""]","No","Female","1245960","","","","","","","","210","57","85","25","25","1",""
"null","null","clear_screen","canvas-keyboard-response","312","813795","0.0-11.0-1.150","118","2022-4-7","9:37:5","1","20","[""White""]","No","Female","1245960","","","","","","","","210","57","85","25","25","",""
"2171","9","rating","canvas-keyboard-response","313","815981","0.0-11.0-0.151","118","2022-4-7","9:37:5","1","20","[""White""]","No","Female","1245960","","","","","","","","239","113","113","25","33","1",""
"null","null","clear_screen","canvas-keyboard-response","314","816239","0.0-11.0-1.151","118","2022-4-7","9:37:5","1","20","[""White""]","No","Female","1245960","","","","","","","","239","113","113","25","33","",""
"1714","6","rating","canvas-keyboard-response","315","817964","0.0-11.0-0.152","118","2022-4-7","9:37:5","1","20","[""White""]","No","Female","1245960","","","","","","","","154","85","140","17","25","0",""
"null","null","clear_screen","canvas-keyboard-response","316","818222","0.0-11.0-1.152","118","2022-4-7","9:37:5","1","20","[""White""]","No","Female","1245960","","","","","","","","154","85","140","17","25","",""
"1580","6","rating","canvas-keyboard-response","317","819812","0.0-11.0-0.153","118","2022-4-7","9:37:5","1","20","[""White""]","No","Female","1245960","","","","","","","","135","57","85","17","25","0",""
"null","null","clear_screen","canvas-keyboard-response","318","820074","0.0-11.0-1.153","118","2022-4-7","9:37:5","1","20","[""White""]","No","Female","1245960","","","","","","","","135","57","85","17","25","",""
"3038","2","rating","canvas-keyboard-response","319","823124","0.0-11.0-0.154","118","2022-4-7","9:37:5","1","20","[""White""]","No","Female","1245960","","","","","","","","182","140","57","17","25","1",""
"null","null","clear_screen","canvas-keyboard-response","320","823385","0.0-11.0-1.154","118","2022-4-7","9:37:5","1","20","[""White""]","No","Female","1245960","","","","","","","","182","140","57","17","25","",""
"2512","7","rating","canvas-keyboard-response","321","825909","0.0-11.0-0.155","118","2022-4-7","9:37:5","1","20","[""White""]","No","Female","1245960","","","","","","","","120","30","30","17","33","1",""
"null","null","clear_screen","canvas-keyboard-response","322","826171","0.0-11.0-1.155","118","2022-4-7","9:37:5","1","20","[""White""]","No","Female","1245960","","","","","","","","120","30","30","17","33","",""
"3639","8","rating","canvas-keyboard-response","323","829821","0.0-11.0-0.156","118","2022-4-7","9:37:5","1","20","[""White""]","No","Female","1245960","","","","","","","","49","85","140","10","10","0",""
"null","null","clear_screen","canvas-keyboard-response","324","830080","0.0-11.0-1.156","118","2022-4-7","9:37:5","1","20","[""White""]","No","Female","1245960","","","","","","","","49","85","140","10","10","",""
"1553","9","rating","canvas-keyboard-response","325","831645","0.0-11.0-0.157","118","2022-4-7","9:37:5","1","20","[""White""]","No","Female","1245960","","","","","","","","269","57","57","33","40","1",""
"null","null","clear_screen","canvas-keyboard-response","326","831903","0.0-11.0-1.157","118","2022-4-7","9:37:5","1","20","[""White""]","No","Female","1245960","","","","","","","","269","57","57","33","40","",""
"3242","1","rating","canvas-keyboard-response","327","835157","0.0-11.0-0.158","118","2022-4-7","9:37:5","1","20","[""White""]","No","Female","1245960","","","","","","","","47","57","140","10","40","1",""
"null","null","clear_screen","canvas-keyboard-response","328","835420","0.0-11.0-1.158","118","2022-4-7","9:37:5","1","20","[""White""]","No","Female","1245960","","","","","","","","47","57","140","10","40","",""
"1471","1","rating","canvas-keyboard-response","329","836901","0.0-11.0-0.159","118","2022-4-7","9:37:5","1","20","[""White""]","No","Female","1245960","","","","","","","","101","140","30","10","33","1",""
"null","null","clear_screen","canvas-keyboard-response","330","837161","0.0-11.0-1.159","118","2022-4-7","9:37:5","1","20","[""White""]","No","Female","1245960","","","","","","","","101","140","30","10","33","",""
"2865","2","rating","canvas-keyboard-response","331","840037","0.0-11.0-0.160","118","2022-4-7","9:37:5","1","20","[""White""]","No","Female","1245960","","","","","","","","247","140","57","25","33","1",""
"null","null","clear_screen","canvas-keyboard-response","332","840299","0.0-11.0-1.160","118","2022-4-7","9:37:5","1","20","[""White""]","No","Female","1245960","","","","","","","","247","140","57","25","33","",""
"4492","8","rating","canvas-keyboard-response","333","844804","0.0-11.0-0.161","118","2022-4-7","9:37:5","1","20","[""White""]","No","Female","1245960","","","","","","","","73","113","85","10","17","0",""
"null","null","clear_screen","canvas-keyboard-response","334","845066","0.0-11.0-1.161","118","2022-4-7","9:37:5","1","20","[""White""]","No","Female","1245960","","","","","","","","73","113","85","10","17","",""
"2376","4","rating","canvas-keyboard-response","335","847452","0.0-11.0-0.162","118","2022-4-7","9:37:5","1","20","[""White""]","No","Female","1245960","","","","","","","","66","85","57","10","40","1",""
"null","null","clear_screen","canvas-keyboard-response","336","847713","0.0-11.0-1.162","118","2022-4-7","9:37:5","1","20","[""White""]","No","Female","1245960","","","","","","","","66","85","57","10","40","",""
"2199","3","rating","canvas-keyboard-response","337","849924","0.0-11.0-0.163","118","2022-4-7","9:37:5","1","20","[""White""]","No","Female","1245960","","","","","","","","262","30","85","33","40","0",""
"null","null","clear_screen","canvas-keyboard-response","338","850183","0.0-11.0-1.163","118","2022-4-7","9:37:5","1","20","[""White""]","No","Female","1245960","","","","","","","","262","30","85","33","40","",""
"3736","2","rating","canvas-keyboard-response","339","853933","0.0-11.0-0.164","118","2022-4-7","9:37:5","1","20","[""White""]","No","Female","1245960","","","","","","","","197","30","85","25","25","1",""
"null","null","clear_screen","canvas-keyboard-response","340","854193","0.0-11.0-1.164","118","2022-4-7","9:37:5","1","20","[""White""]","No","Female","1245960","","","","","","","","197","30","85","25","25","",""
"3169","2","rating","canvas-keyboard-response","341","857373","0.0-11.0-0.165","118","2022-4-7","9:37:5","1","20","[""White""]","No","Female","1245960","","","","","","","","160","85","30","17","40","0",""
"null","null","clear_screen","canvas-keyboard-response","342","857632","0.0-11.0-1.165","118","2022-4-7","9:37:5","1","20","[""White""]","No","Female","1245960","","","","","","","","160","85","30","17","40","",""
"1599","1","rating","canvas-keyboard-response","343","859246","0.0-11.0-0.166","118","2022-4-7","9:37:5","1","20","[""White""]","No","Female","1245960","","","","","","","","132","57","140","17","17","0",""
"null","null","clear_screen","canvas-keyboard-response","344","859508","0.0-11.0-1.166","118","2022-4-7","9:37:5","1","20","[""White""]","No","Female","1245960","","","","","","","","132","57","140","17","17","",""
"2692","3","rating","canvas-keyboard-response","345","862213","0.0-11.0-0.167","118","2022-4-7","9:37:5","1","20","[""White""]","No","Female","1245960","","","","","","","","98","140","85","10","25","1",""
"14"," ","clear_screen","canvas-keyboard-response","346","862235","0.0-11.0-1.167","118","2022-4-7","9:37:5","1","20","[""White""]","No","Female","1245960","","","","","","","","98","140","85","10","25","",""
"2795","7","rating","canvas-keyboard-response","347","865037","0.0-11.0-0.168","118","2022-4-7","9:37:5","1","20","[""White""]","No","Female","1245960","","","","","","","","152","85","85","17","25","1",""
"null","null","clear_screen","canvas-keyboard-response","348","865299","0.0-11.0-1.168","118","2022-4-7","9:37:5","1","20","[""White""]","No","Female","1245960","","","","","","","","152","85","85","17","25","",""
"3107","5","rating","canvas-keyboard-response","349","868420","0.0-11.0-0.169","118","2022-4-7","9:37:5","1","20","[""White""]","No","Female","1245960","","","","","","","","121","30","57","17","33","1",""
"null","null","clear_screen","canvas-keyboard-response","350","868681","0.0-11.0-1.169","118","2022-4-7","9:37:5","1","20","[""White""]","No","Female","1245960","","","","","","","","121","30","57","17","33","",""
"2406","3","rating","canvas-keyboard-response","351","871101","0.0-11.0-0.170","118","2022-4-7","9:37:5","1","20","[""White""]","No","Female","1245960","","","","","","","","296","57","113","40","40","0",""
"null","null","clear_screen","canvas-keyboard-response","352","871362","0.0-11.0-1.170","118","2022-4-7","9:37:5","1","20","[""White""]","No","Female","1245960","","","","","","","","296","57","113","40","40","",""
"3078","5","rating","canvas-keyboard-response","353","874455","0.0-11.0-0.171","118","2022-4-7","9:37:5","1","20","[""White""]","No","Female","1245960","","","","","","","","110","140","140","10","40","0",""
"null","null","clear_screen","canvas-keyboard-response","354","874716","0.0-11.0-1.171","118","2022-4-7","9:37:5","1","20","[""White""]","No","Female","1245960","","","","","","","","110","140","140","10","40","",""
"5824","2","rating","canvas-keyboard-response","355","880557","0.0-11.0-0.172","118","2022-4-7","9:37:5","1","20","[""White""]","No","Female","1245960","","","","","","","","42","57","140","10","33","0",""
"null","null","clear_screen","canvas-keyboard-response","356","880818","0.0-11.0-1.172","118","2022-4-7","9:37:5","1","20","[""White""]","No","Female","1245960","","","","","","","","42","57","140","10","33","",""
"2916","2","rating","canvas-keyboard-response","357","883742","0.0-11.0-0.173","118","2022-4-7","9:37:5","1","20","[""White""]","No","Female","1245960","","","","","","","","9","30","140","10","17","0",""
"null","null","clear_screen","canvas-keyboard-response","358","884000","0.0-11.0-1.173","118","2022-4-7","9:37:5","1","20","[""White""]","No","Female","1245960","","","","","","","","9","30","140","10","17","",""
"1825","2","rating","canvas-keyboard-response","359","885837","0.0-11.0-0.174","118","2022-4-7","9:37:5","1","20","[""White""]","No","Female","1245960","","","","","","","","127","30","85","17","40","0",""
"null","null","clear_screen","canvas-keyboard-response","360","886099","0.0-11.0-1.174","118","2022-4-7","9:37:5","1","20","[""White""]","No","Female","1245960","","","","","","","","127","30","85","17","40","",""
"5456","3","rating","canvas-keyboard-response","361","891565","0.0-11.0-0.175","118","2022-4-7","9:37:5","1","20","[""White""]","No","Female","1245960","","","","","","","","136","57","113","17","25","0",""
"null","null","clear_screen","canvas-keyboard-response","362","891823","0.0-11.0-1.175","118","2022-4-7","9:37:5","1","20","[""White""]","No","Female","1245960","","","","","","","","136","57","113","17","25","",""
"1343","1","rating","canvas-keyboard-response","363","893181","0.0-11.0-0.176","118","2022-4-7","9:37:5","1","20","[""White""]","No","Female","1245960","","","","","","","","259","30","140","33","33","0",""
"null","null","clear_screen","canvas-keyboard-response","364","893441","0.0-11.0-1.176","118","2022-4-7","9:37:5","1","20","[""White""]","No","Female","1245960","","","","","","","","259","30","140","33","33","",""
"3273","5","rating","canvas-keyboard-response","365","896725","0.0-11.0-0.177","118","2022-4-7","9:37:5","1","20","[""White""]","No","Female","1245960","","","","","","","","229","85","140","25","33","1",""
"null","null","clear_screen","canvas-keyboard-response","366","896985","0.0-11.0-1.177","118","2022-4-7","9:37:5","1","20","[""White""]","No","Female","1245960","","","","","","","","229","85","140","25","33","",""
"2723","6","rating","canvas-keyboard-response","367","899720","0.0-11.0-0.178","118","2022-4-7","9:37:5","1","20","[""White""]","No","Female","1245960","","","","","","","","216","57","113","25","33","0",""
"null","null","clear_screen","canvas-keyboard-response","368","899975","0.0-11.0-1.178","118","2022-4-7","9:37:5","1","20","[""White""]","No","Female","1245960","","","","","","","","216","57","113","25","33","",""
"2017","2","rating","canvas-keyboard-response","369","902006","0.0-11.0-0.179","118","2022-4-7","9:37:5","1","20","[""White""]","No","Female","1245960","","","","","","","","12","30","85","10","25","0",""
"null","null","clear_screen","canvas-keyboard-response","370","902264","0.0-11.0-1.179","118","2022-4-7","9:37:5","1","20","[""White""]","No","Female","1245960","","","","","","","","12","30","85","10","25","",""
"3326","2","rating","canvas-keyboard-response","371","905605","0.0-11.0-0.180","118","2022-4-7","9:37:5","1","20","[""White""]","No","Female","1245960","","","","","","","","142","57","140","17","33","0",""
"null","null","clear_screen","canvas-keyboard-response","372","905865","0.0-11.0-1.180","118","2022-4-7","9:37:5","1","20","[""White""]","No","Female","1245960","","","","","","","","142","57","140","17","33","",""
"4348","1","rating","canvas-keyboard-response","373","910229","0.0-11.0-0.181","118","2022-4-7","9:37:5","1","20","[""White""]","No","Female","1245960","","","","","","","","196","30","57","25","25","1",""
"null","null","clear_screen","canvas-keyboard-response","374","910490","0.0-11.0-1.181","118","2022-4-7","9:37:5","1","20","[""White""]","No","Female","1245960","","","","","","","","196","30","57","25","25","",""
"1847","1","rating","canvas-keyboard-response","375","912349","0.0-11.0-0.182","118","2022-4-7","9:37:5","1","20","[""White""]","No","Female","1245960","","","","","","","","233","85","113","25","40","0",""
"null","null","clear_screen","canvas-keyboard-response","376","912608","0.0-11.0-1.182","118","2022-4-7","9:37:5","1","20","[""White""]","No","Female","1245960","","","","","","","","233","85","113","25","40","",""
"3034","2","rating","canvas-keyboard-response","377","915652","0.0-11.0-0.183","118","2022-4-7","9:37:5","1","20","[""White""]","No","Female","1245960","","","","","","","","198","30","113","25","25","0",""
"null","null","clear_screen","canvas-keyboard-response","378","915913","0.0-11.0-1.183","118","2022-4-7","9:37:5","1","20","[""White""]","No","Female","1245960","","","","","","","","198","30","113","25","25","",""
"4790","8","rating","canvas-keyboard-response","379","920718","0.0-11.0-0.184","118","2022-4-7","9:37:5","1","20","[""White""]","No","Female","1245960","","","","","","","","48","85","113","10","10","0",""
"null","null","clear_screen","canvas-keyboard-response","380","920978","0.0-11.0-1.184","118","2022-4-7","9:37:5","1","20","[""White""]","No","Female","1245960","","","","","","","","48","85","113","10","10","",""
"1165","9","rating","canvas-keyboard-response","381","922157","0.0-11.0-0.185","118","2022-4-7","9:37:5","1","20","[""White""]","No","Female","1245960","","","","","","","","283","113","85","33","40","1",""
"null","null","clear_screen","canvas-keyboard-response","382","922420","0.0-11.0-1.185","118","2022-4-7","9:37:5","1","20","[""White""]","No","Female","1245960","","","","","","","","283","113","85","33","40","",""
"2564","6","rating","canvas-keyboard-response","383","924997","0.0-11.0-0.186","118","2022-4-7","9:37:5","1","20","[""White""]","No","Female","1245960","","","","","","","","3","30","113","10","10","0",""
"null","null","clear_screen","canvas-keyboard-response","384","925256","0.0-11.0-1.186","118","2022-4-7","9:37:5","1","20","[""White""]","No","Female","1245960","","","","","","","","3","30","113","10","10","",""
"1893","7","rating","canvas-keyboard-response","385","927165","0.0-11.0-0.187","118","2022-4-7","9:37:5","1","20","[""White""]","No","Female","1245960","","","","","","","","1","30","57","10","10","0",""
"null","null","clear_screen","canvas-keyboard-response","386","927423","0.0-11.0-1.187","118","2022-4-7","9:37:5","1","20","[""White""]","No","Female","1245960","","","","","","","","1","30","57","10","10","",""
"3045","3","rating","canvas-keyboard-response","387","930485","0.0-11.0-0.188","118","2022-4-7","9:37:5","1","20","[""White""]","No","Female","1245960","","","","","","","","221","57","113","25","40","1",""
"null","null","clear_screen","canvas-keyboard-response","388","930747","0.0-11.0-1.188","118","2022-4-7","9:37:5","1","20","[""White""]","No","Female","1245960","","","","","","","","221","57","113","25","40","",""
"2916","2","rating","canvas-keyboard-response","389","933677","0.0-11.0-0.189","118","2022-4-7","9:37:5","1","20","[""White""]","No","Female","1245960","","","","","","","","108","140","85","10","40","1",""
"null","null","clear_screen","canvas-keyboard-response","390","933936","0.0-11.0-1.189","118","2022-4-7","9:37:5","1","20","[""White""]","No","Female","1245960","","","","","","","","108","140","85","10","40","",""
"1521","1","rating","canvas-keyboard-response","391","935469","0.0-11.0-0.190","118","2022-4-7","9:37:5","1","20","[""White""]","No","Female","1245960","","","","","","","","209","30","140","25","40","0",""
"null","null","clear_screen","canvas-keyboard-response","392","935726","0.0-11.0-1.190","118","2022-4-7","9:37:5","1","20","[""White""]","No","Female","1245960","","","","","","","","209","30","140","25","40","",""
"771","1","rating","canvas-keyboard-response","393","936509","0.0-11.0-0.191","118","2022-4-7","9:37:5","1","20","[""White""]","No","Female","1245960","","","","","","","","23","30","113","10","40","0",""
"null","null","clear_screen","canvas-keyboard-response","394","936770","0.0-11.0-1.191","118","2022-4-7","9:37:5","1","20","[""White""]","No","Female","1245960","","","","","","","","23","30","113","10","40","",""
"1616","3","rating","canvas-keyboard-response","395","938396","0.0-11.0-0.192","118","2022-4-7","9:37:5","1","20","[""White""]","No","Female","1245960","","","","","","","","272","57","140","33","40","1",""
"null","null","clear_screen","canvas-keyboard-response","396","938659","0.0-11.0-1.192","118","2022-4-7","9:37:5","1","20","[""White""]","No","Female","1245960","","","","","","","","272","57","140","33","40","",""
"1967","6","rating","canvas-keyboard-response","397","940636","0.0-11.0-0.193","118","2022-4-7","9:37:5","1","20","[""White""]","No","Female","1245960","","","","","","","","153","85","113","17","25","1",""
"null","null","clear_screen","canvas-keyboard-response","398","940897","0.0-11.0-1.193","118","2022-4-7","9:37:5","1","20","[""White""]","No","Female","1245960","","","","","","","","153","85","113","17","25","",""
"2349","6","rating","canvas-keyboard-response","399","943262","0.0-11.0-0.194","118","2022-4-7","9:37:5","1","20","[""White""]","No","Female","1245960","","","","","","","","116","30","57","17","25","0",""
"null","null","clear_screen","canvas-keyboard-response","400","943523","0.0-11.0-1.194","118","2022-4-7","9:37:5","1","20","[""White""]","No","Female","1245960","","","","","","","","116","30","57","17","25","",""
"1976","2","rating","canvas-keyboard-response","401","945517","0.0-11.0-0.195","118","2022-4-7","9:37:5","1","20","[""White""]","No","Female","1245960","","","","","","","","81","113","30","10","33","0",""
"null","null","clear_screen","canvas-keyboard-response","402","945777","0.0-11.0-1.195","118","2022-4-7","9:37:5","1","20","[""White""]","No","Female","1245960","","","","","","","","81","113","30","10","33","",""
"3864","7","rating","canvas-keyboard-response","403","949654","0.0-11.0-0.196","118","2022-4-7","9:37:5","1","20","[""White""]","No","Female","1245960","","","","","","","","249","140","113","25","33","1",""
"null","null","clear_screen","canvas-keyboard-response","404","949913","0.0-11.0-1.196","118","2022-4-7","9:37:5","1","20","[""White""]","No","Female","1245960","","","","","","","","249","140","113","25","33","",""
"1758","3","rating","canvas-keyboard-response","405","951685","0.0-11.0-0.197","118","2022-4-7","9:37:5","1","20","[""White""]","No","Female","1245960","","","","","","","","102","140","57","10","33","1",""
"null","null","clear_screen","canvas-keyboard-response","406","951945","0.0-11.0-1.197","118","2022-4-7","9:37:5","1","20","[""White""]","No","Female","1245960","","","","","","","","102","140","57","10","33","",""
"2264","2","rating","canvas-keyboard-response","407","954221","0.0-11.0-0.198","118","2022-4-7","9:37:5","1","20","[""White""]","No","Female","1245960","","","","","","","","207","30","85","25","40","1",""
"null","null","clear_screen","canvas-keyboard-response","408","954485","0.0-11.0-1.198","118","2022-4-7","9:37:5","1","20","[""White""]","No","Female","1245960","","","","","","","","207","30","85","25","40","",""
"1425","1","rating","canvas-keyboard-response","409","955925","0.0-11.0-0.199","118","2022-4-7","9:37:5","1","20","[""White""]","No","Female","1245960","","","","","","","","264","30","140","33","40","0",""
"null","null","clear_screen","canvas-keyboard-response","410","956185","0.0-11.0-1.199","118","2022-4-7","9:37:5","1","20","[""White""]","No","Female","1245960","","","","","","","","264","30","140","33","40","",""
"3548","7","rating","canvas-keyboard-response","411","959749","0.0-11.0-0.200","118","2022-4-7","9:37:5","1","20","[""White""]","No","Female","1245960","","","","","","","","235","113","140","25","25","0",""
"null","null","clear_screen","canvas-keyboard-response","412","960009","0.0-11.0-1.200","118","2022-4-7","9:37:5","1","20","[""White""]","No","Female","1245960","","","","","","","","235","113","140","25","25","",""
"2061","2","rating","canvas-keyboard-response","413","962084","0.0-11.0-0.201","118","2022-4-7","9:37:5","1","20","[""White""]","No","Female","1245960","","","","","","","","11","30","57","10","25","1",""
"null","null","clear_screen","canvas-keyboard-response","414","962345","0.0-11.0-1.201","118","2022-4-7","9:37:5","1","20","[""White""]","No","Female","1245960","","","","","","","","11","30","57","10","25","",""
"1112","1","rating","canvas-keyboard-response","415","963469","0.0-11.0-0.202","118","2022-4-7","9:37:5","1","20","[""White""]","No","Female","1245960","","","","","","","","294","30","140","40","40","0",""
"null","null","clear_screen","canvas-keyboard-response","416","963732","0.0-11.0-1.202","118","2022-4-7","9:37:5","1","20","[""White""]","No","Female","1245960","","","","","","","","294","30","140","40","40","",""
"1206","1","rating","canvas-keyboard-response","417","964949","0.0-11.0-0.203","118","2022-4-7","9:37:5","1","20","[""White""]","No","Female","1245960","","","","","","","","176","113","30","17","40","0",""
"null","null","clear_screen","canvas-keyboard-response","418","965211","0.0-11.0-1.203","118","2022-4-7","9:37:5","1","20","[""White""]","No","Female","1245960","","","","","","","","176","113","30","17","40","",""
"1870","4","rating","canvas-keyboard-response","419","967093","0.0-11.0-0.204","118","2022-4-7","9:37:5","1","20","[""White""]","No","Female","1245960","","","","","","","","40","57","85","10","33","0",""
"null","null","clear_screen","canvas-keyboard-response","420","967355","0.0-11.0-1.204","118","2022-4-7","9:37:5","1","20","[""White""]","No","Female","1245960","","","","","","","","40","57","85","10","33","",""
"1168","1","rating","canvas-keyboard-response","421","968532","0.0-11.0-0.205","118","2022-4-7","9:37:5","1","20","[""White""]","No","Female","1245960","","","","","","","","55","85","30","10","25","1",""
"null","null","clear_screen","canvas-keyboard-response","422","968793","0.0-11.0-1.205","118","2022-4-7","9:37:5","1","20","[""White""]","No","Female","1245960","","","","","","","","55","85","30","10","25","",""
"7017","4","rating","canvas-keyboard-response","423","975821","0.0-11.0-0.206","118","2022-4-7","9:37:5","1","20","[""White""]","No","Female","1245960","","","","","","","","89","113","113","10","40","1",""
"null","null","clear_screen","canvas-keyboard-response","424","976080","0.0-11.0-1.206","118","2022-4-7","9:37:5","1","20","[""White""]","No","Female","1245960","","","","","","","","89","113","113","10","40","",""
"2235","8","rating","canvas-keyboard-response","425","978325","0.0-11.0-0.207","118","2022-4-7","9:37:5","1","20","[""White""]","No","Female","1245960","","","","","","","","214","57","57","25","33","0",""
"null","null","clear_screen","canvas-keyboard-response","426","978585","0.0-11.0-1.207","118","2022-4-7","9:37:5","1","20","[""White""]","No","Female","1245960","","","","","","","","214","57","57","25","33","",""
"3609","3","rating","canvas-keyboard-response","427","982205","0.0-11.0-0.208","118","2022-4-7","9:37:5","1","20","[""White""]","No","Female","1245960","","","","","","","","64","85","140","10","33","0",""
"null","null","clear_screen","canvas-keyboard-response","428","982464","0.0-11.0-1.208","118","2022-4-7","9:37:5","1","20","[""White""]","No","Female","1245960","","","","","","","","64","85","140","10","33","",""
"6574","8","rating","canvas-keyboard-response","429","989053","0.0-11.0-0.209","118","2022-4-7","9:37:5","1","20","[""White""]","No","Female","1245960","","","","","","","","298","85","113","40","40","1",""
"null","null","clear_screen","canvas-keyboard-response","430","989313","0.0-11.0-1.209","118","2022-4-7","9:37:5","1","20","[""White""]","No","Female","1245960","","","","","","","","298","85","113","40","40","",""
"1662","6","rating","canvas-keyboard-response","431","990988","0.0-11.0-0.210","118","2022-4-7","9:37:5","1","20","[""White""]","No","Female","1245960","","","","","","","","111","30","57","17","17","0",""
"null","null","clear_screen","canvas-keyboard-response","432","991247","0.0-11.0-1.210","118","2022-4-7","9:37:5","1","20","[""White""]","No","Female","1245960","","","","","","","","111","30","57","17","17","",""
"1070","3","rating","canvas-keyboard-response","433","992333","0.0-11.0-0.211","118","2022-4-7","9:37:5","1","20","[""White""]","No","Female","1245960","","","","","","","","128","30","113","17","40","1",""
"null","null","clear_screen","canvas-keyboard-response","434","992593","0.0-11.0-1.211","118","2022-4-7","9:37:5","1","20","[""White""]","No","Female","1245960","","","","","","","","128","30","113","17","40","",""
"3039","8","rating","canvas-keyboard-response","435","995646","0.0-11.0-0.212","118","2022-4-7","9:37:5","1","20","[""White""]","No","Female","1245960","","","","","","","","100","140","140","10","25","0",""
"null","null","clear_screen","canvas-keyboard-response","436","995907","0.0-11.0-1.212","118","2022-4-7","9:37:5","1","20","[""White""]","No","Female","1245960","","","","","","","","100","140","140","10","25","",""
"2619","2","rating","canvas-keyboard-response","437","998541","0.0-11.0-0.213","118","2022-4-7","9:37:5","1","20","[""White""]","No","Female","1245960","","","","","","","","106","140","30","10","40","0",""
"null","null","clear_screen","canvas-keyboard-response","438","998803","0.0-11.0-1.213","118","2022-4-7","9:37:5","1","20","[""White""]","No","Female","1245960","","","","","","","","106","140","30","10","40","",""
"1884","2","rating","canvas-keyboard-response","439","1000700","0.0-11.0-0.214","118","2022-4-7","9:37:5","1","20","[""White""]","No","Female","1245960","","","","","","","","17","30","85","10","33","0",""
"null","null","clear_screen","canvas-keyboard-response","440","1000964","0.0-11.0-1.214","118","2022-4-7","9:37:5","1","20","[""White""]","No","Female","1245960","","","","","","","","17","30","85","10","33","",""
"1180","1","rating","canvas-keyboard-response","441","1002157","0.0-11.0-0.215","118","2022-4-7","9:37:5","1","20","[""White""]","No","Female","1245960","","","","","","","","251","140","30","25","40","0",""
"null","null","clear_screen","canvas-keyboard-response","442","1002418","0.0-11.0-1.215","118","2022-4-7","9:37:5","1","20","[""White""]","No","Female","1245960","","","","","","","","251","140","30","25","40","",""
"2593","4","rating","canvas-keyboard-response","443","1005021","0.0-11.0-0.216","118","2022-4-7","9:37:5","1","20","[""White""]","No","Female","1245960","","","","","","","","68","85","113","10","40","0",""
"null","null","clear_screen","canvas-keyboard-response","444","1005281","0.0-11.0-1.216","118","2022-4-7","9:37:5","1","20","[""White""]","No","Female","1245960","","","","","","","","68","85","113","10","40","",""
"1632","2","rating","canvas-keyboard-response","445","1006926","0.0-11.0-0.217","118","2022-4-7","9:37:5","1","20","[""White""]","No","Female","1245960","","","","","","","","181","140","30","17","25","0",""
"null","null","clear_screen","canvas-keyboard-response","446","1007184","0.0-11.0-1.217","118","2022-4-7","9:37:5","1","20","[""White""]","No","Female","1245960","","","","","","","","181","140","30","17","25","",""
"834","1","rating","canvas-keyboard-response","447","1008030","0.0-11.0-0.218","118","2022-4-7","9:37:5","1","20","[""White""]","No","Female","1245960","","","","","","","","96","140","30","10","25","1",""
"null","null","clear_screen","canvas-keyboard-response","448","1008288","0.0-11.0-1.218","118","2022-4-7","9:37:5","1","20","[""White""]","No","Female","1245960","","","","","","","","96","140","30","10","25","",""
"1835","2","rating","canvas-keyboard-response","449","1010133","0.0-11.0-0.219","118","2022-4-7","9:37:5","1","20","[""White""]","No","Female","1245960","","","","","","","","187","140","57","17","33","0",""
"null","null","clear_screen","canvas-keyboard-response","450","1010393","0.0-11.0-1.219","118","2022-4-7","9:37:5","1","20","[""White""]","No","Female","1245960","","","","","","","","187","140","57","17","33","",""
"3701","2","rating","canvas-keyboard-response","451","1014109","0.0-11.0-0.220","118","2022-4-7","9:37:5","1","20","[""White""]","No","Female","1245960","","","","","","","","166","113","30","17","25","1",""
"null","null","clear_screen","canvas-keyboard-response","452","1014368","0.0-11.0-1.220","118","2022-4-7","9:37:5","1","20","[""White""]","No","Female","1245960","","","","","","","","166","113","30","17","25","",""
"1211","2","rating","canvas-keyboard-response","453","1015589","0.0-11.0-0.221","118","2022-4-7","9:37:5","1","20","[""White""]","No","Female","1245960","","","","","","","","171","113","30","17","33","1",""
"null","null","clear_screen","canvas-keyboard-response","454","1015850","0.0-11.0-1.221","118","2022-4-7","9:37:5","1","20","[""White""]","No","Female","1245960","","","","","","","","171","113","30","17","33","",""
"3023","5","rating","canvas-keyboard-response","455","1018886","0.0-11.0-0.222","118","2022-4-7","9:37:5","1","20","[""White""]","No","Female","1245960","","","","","","","","274","85","140","33","33","1",""
"null","null","clear_screen","canvas-keyboard-response","456","1019143","0.0-11.0-1.222","118","2022-4-7","9:37:5","1","20","[""White""]","No","Female","1245960","","","","","","","","274","85","140","33","33","",""
"2403","9","rating","canvas-keyboard-response","457","1021557","0.0-11.0-0.223","118","2022-4-7","9:37:5","1","20","[""White""]","No","Female","1245960","","","","","","","","52","85","85","10","17","0",""
"null","null","clear_screen","canvas-keyboard-response","458","1021814","0.0-11.0-1.223","118","2022-4-7","9:37:5","1","20","[""White""]","No","Female","1245960","","","","","","","","52","85","85","10","17","",""
"1201","9","rating","canvas-keyboard-response","459","1023029","0.0-11.0-0.224","118","2022-4-7","9:37:5","1","20","[""White""]","No","Female","1245960","","","","","","","","115","30","30","17","25","0",""
"null","null","clear_screen","canvas-keyboard-response","460","1023289","0.0-11.0-1.224","118","2022-4-7","9:37:5","1","20","[""White""]","No","Female","1245960","","","","","","","","115","30","30","17","25","",""
"4664","2","rating","canvas-keyboard-response","461","1027963","0.0-11.0-0.225","118","2022-4-7","9:37:5","1","20","[""White""]","No","Female","1245960","","","","","","","","118","30","113","17","25","1",""
"null","null","clear_screen","canvas-keyboard-response","462","1028217","0.0-11.0-1.225","118","2022-4-7","9:37:5","1","20","[""White""]","No","Female","1245960","","","","","","","","118","30","113","17","25","",""
"2854","8","rating","canvas-keyboard-response","463","1031085","0.0-11.0-0.226","118","2022-4-7","9:37:5","1","20","[""White""]","No","Female","1245960","","","","","","","","278","85","113","33","40","0",""
"null","null","clear_screen","canvas-keyboard-response","464","1031347","0.0-11.0-1.226","118","2022-4-7","9:37:5","1","20","[""White""]","No","Female","1245960","","","","","","","","278","85","113","33","40","",""
"3500","2","rating","canvas-keyboard-response","465","1034862","0.0-11.0-0.227","118","2022-4-7","9:37:5","1","20","[""White""]","No","Female","1245960","","","","","","","","18","30","113","10","33","1",""
"null","null","clear_screen","canvas-keyboard-response","466","1035123","0.0-11.0-1.227","118","2022-4-7","9:37:5","1","20","[""White""]","No","Female","1245960","","","","","","","","18","30","113","10","33","",""
"2648","3","rating","canvas-keyboard-response","467","1037789","0.0-11.0-0.228","118","2022-4-7","9:37:5","1","20","[""White""]","No","Female","1245960","","","","","","","","140","57","85","17","33","1",""
"null","null","clear_screen","canvas-keyboard-response","468","1038047","0.0-11.0-1.228","118","2022-4-7","9:37:5","1","20","[""White""]","No","Female","1245960","","","","","","","","140","57","85","17","33","",""
"1465","2","rating","canvas-keyboard-response","469","1039525","0.0-11.0-0.229","118","2022-4-7","9:37:5","1","20","[""White""]","No","Female","1245960","","","","","","","","155","85","30","17","33","0",""
